tar_letter,tar_pos,tar_ori,tar_pos_type,block,trials.thisRepN,trials.thisTrialN,trials.thisN,trials.thisIndex,instructions_key.keys,instructions_key.rt,instructions_key.started,instructions_key.stopped,instruction_text.started,instruction_text.stopped,fix_key.keys,fix_key.started,fix_key.stopped,fixcross.started,fixcross.stopped,roi.started,roi.stopped,roi.numLooks,roi.timesOn,roi.timesOff,RedFixCross.started,RedFixCross.stopped,distori,search_resp.keys,search_resp.corr,search_resp.rt,search_resp.started,search_resp.stopped,fixcross_shape.started,fixcross_shape.stopped,correct,feedback_text.started,feedback_text.stopped,break_key.keys,break_key.started,break_key.stopped,break_key.rt,text_q1.started,text_q1.stopped,key_resp1.keys,key_resp1.rt,key_resp1.started,key_resp1.stopped,text_q2.started,text_q2.stopped,key_resp_2.keys,key_resp_2.rt,key_resp_2.started,key_resp_2.stopped,image.started,image.stopped,text_q1_2.started,text_q1_2.stopped,slider.response,slider.rt,slider.started,slider.stopped,mouse.x,mouse.y,mouse.leftButton,mouse.midButton,mouse.rightButton,mouse.time,mouse.started,mouse.stopped,key_resp_3.keys,key_resp_3.rt,key_resp_3.started,key_resp_3.stopped,text_q4.started,text_q4.stopped,key_resp1_3.keys,key_resp1_3.rt,key_resp1_3.started,key_resp1_3.stopped,finish_text.started,finish_text.stopped,key_resp.keys,key_resp.rt,key_resp.started,key_resp.stopped,participant,group,age,gender,date,expName,psychopyVersion,frameRate,
,,,,,,,,,space,3.9442906010590377,60.34227429614475,None,,,,,,,,,,,,,,,,,,,,,,,,,,,,,,,,,,,,,,,,,,,,,,,,,,,,,,,,,,,,,,,,,,,,,,,,,,01_JW,1,33,F,2022-11-22_17h07.03.843,dynamic target,2022.1.3,120.10361576697916,
1,5,3,0,mix,0,0,0,0,,,,,60.34227429614475,None,None,197.53325672552455,None,196.5854182394978,None,197.03369482040944,None,1,[0.008906539544113912],[0.5175651674180699],197.53325672552455,None,[2 0 1 0 2 3 3 3],space,0,3.9361512086325092,0.0065458944482088555,None,197.55822524747782,None,1,201.49652025659452,None,None,201.99609120583736,None,,,,,,,,,,,,,,,,,,,,,,,,,,,,,,,,,,,,,,,,,,,,,,01_JW,1,33,F,2022-11-22_17h07.03.843,dynamic target,2022.1.3,120.10361576697916,
0,6,2,2,mix,0,1,1,1,,,,,,,None,203.02856442784795,None,202.04612311684832,None,202.52065652655438,None,1,[0.008660552153742174],[0.516482438040839],203.02856442784795,None,[1 1 3 3 0 3 1 2],space,0,3.300589064907399,0.0016982430643111002,None,203.03686507511156,None,1,206.34238718736015,None,None,206.84197288942923,None,,,,,,,,,,,,,,,,,,,,,,,,,,,,,,,,,,,,,,,,,,,,,,01_JW,1,33,F,2022-11-22_17h07.03.843,dynamic target,2022.1.3,120.10361576697916,
0,7,2,2,mix,0,2,2,2,,,,,,,None,207.8744098066527,None,206.9002750440486,207.8993885914424,207.3748376386975,None,1,[0.18183695814877865],[0.6822516409338277],207.8744098066527,None,[3 1 2 0 0 1 3 1],space,0,3.4961945819522953,0.002581809247203637,None,208.05759985580517,None,1,211.55459284436438,None,None,212.0541827157136,None,,,,,,,,,,,,,,,,,,,,,,,,,,,,,,,,,,,,,,,,,,,,,,01_JW,1,33,F,2022-11-22_17h07.03.843,dynamic target,2022.1.3,120.10361576697916,
1,6,1,1,mix,0,3,3,3,,,,,,,None,213.0866263679236,None,212.09580872123115,213.0949540192778,212.58705259639828,None,3,"[0.008640026477223728, 0.583734492691292, 0.6171708178771951]","[0.1750721445387171, 0.5919405935637769, 1.1253204731401638]",213.0866263679236,None,[1 1 2 2 2 0 2 3],space,0,3.7782917671756877,0.0021597500453935936,None,213.71111490978365,None,1,217.4911960888312,None,None,217.99078756374692,None,,,,,,,,,,,,,,,,,,,,,,,,,,,,,,,,,,,,,,,,,,,,,,01_JW,1,33,F,2022-11-22_17h07.03.843,dynamic target,2022.1.3,120.10361576697916,
0,7,3,2,mix,0,4,4,4,,,,,,,None,219.02321133171063,None,218.03239496787137,None,218.52364140875216,None,1,[0.009309676635893993],[0.5177277692491771],219.02321133171063,None,[2 0 1 1 3 1 3 0],space,0,4.785922186994867,0.0025102900981437415,None,219.0398756144059,None,1,223.8274477028208,None,None,224.32702474562356,None,,,,,,,,,,,,,,,,,,,,,,,,,,,,,,,,,,,,,,,,,,,,,,01_JW,1,33,F,2022-11-22_17h07.03.843,dynamic target,2022.1.3,120.10361576697916,
0,8,2,2,mix,0,5,5,5,,,,,,,None,225.35947481210678,None,224.36864433686787,None,224.85989558845176,None,1,[0.008975492983154254],[0.5177717070218932],225.35947481210678,None,[2 1 2 0 0 0 2 0],space,0,3.8084208929176384,0.002308240480488166,None,225.3761076648625,None,1,229.18955653636658,None,None,229.68909797994965,None,,,,,,,,,,,,,,,,,,,,,,,,,,,,,,,,,,,,,,,,,,,,,,01_JW,1,33,F,2022-11-22_17h07.03.843,dynamic target,2022.1.3,120.10361576697916,
1,1,3,2,mix,0,6,6,6,,,,,,,None,230.7215490085764,None,229.73905612681483,230.73819565201848,230.21364469927357,None,2,"[0.009173694037599489, 0.3249118197709322]","[0.1253560723598639, 0.8330409493610205]",230.7215490085764,None,[1 2 2 3 2 3 1 0],space,0,5.435397210774681,0.0033162435720441863,None,231.046269683,None,1,236.48328568596844,None,None,236.98287106732786,None,,,,,,,,,,,,,,,,,,,,,,,,,,,,,,,,,,,,,,,,,,,,,,01_JW,1,33,F,2022-11-22_17h07.03.843,dynamic target,2022.1.3,120.10361576697916,
0,2,1,2,mix,0,7,7,7,,,,,,,None,238.01531119168794,None,237.02448841357545,None,237.51575409727593,None,1,[0.009226932510500774],[0.5175462453116779],238.01531119168794,None,[3 0 0 0 0 1 0 3],space,0,3.440819837636809,0.002490405851858668,None,238.03196681511326,None,1,241.4706954291214,None,None,241.97026349194093,None,,,,,,,,,,,,,,,,,,,,,,,,,,,,,,,,,,,,,,,,,,,,,,01_JW,1,33,F,2022-11-22_17h07.03.843,dynamic target,2022.1.3,120.10361576697916,
0,3,4,2,mix,0,8,8,8,,,,,,,None,243.0027209348409,None,242.02028963010525,None,242.5031452390358,None,1,[0.00864451647066744],[0.5174246948263317],243.0027209348409,None,[3 0 3 0 3 0 2 3],space,0,4.053106186205696,0.002788028145005228,None,243.01936437114637,None,1,247.0742397642607,None,None,247.57382995632324,None,,,,,,,,,,,,,,,,,,,,,,,,,,,,,,,,,,,,,,,,,,,,,,01_JW,1,33,F,2022-11-22_17h07.03.843,dynamic target,2022.1.3,120.10361576697916,
0,2,4,1,mix,0,9,9,9,,,,,,,None,248.60626398712338,None,247.615440246871,248.61459548704443,248.10669534702174,None,1,[0.058094075586268445],[0.566486511102994],248.60626398712338,None,[0 1 0 0 1 0 3 1],space,0,7.983449099683639,0.0032274058830807917,None,248.67287525584834,None,1,256.657714158162,None,None,257.15727580670466,None,,,,,,,,,,,,,,,,,,,,,,,,,,,,,,,,,,,,,,,,,,,,,,01_JW,1,33,F,2022-11-22_17h07.03.843,dynamic target,2022.1.3,120.10361576697916,
0,7,3,0,mix,0,10,10,10,,,,,,,None,258.1897380603077,None,257.2156119569736,None,257.69016460949933,None,1,[0.007803925920597976],[0.5165398457902484],258.1897380603077,None,[3 2 0 2 3 1 2 2],space,0,3.2016809666929475,0.002578922823886387,None,258.2064199822562,None,1,261.4119839797095,None,None,261.91155653251883,None,,,,,,,,,,,,,,,,,,,,,,,,,,,,,,,,,,,,,,,,,,,,,,01_JW,1,33,F,2022-11-22_17h07.03.843,dynamic target,2022.1.3,120.10361576697916,
1,8,3,2,mix,0,11,11,11,,,,,,,None,262.9440069197153,None,261.96151147224737,None,262.44443250676704,None,1,[0.009167600477667293],[0.5175555460045871],262.9440069197153,None,[3 1 2 3 2 2 2 0],space,0,6.638109101491864,0.0025776399706956,None,262.9606513181643,None,1,269.59665283963113,None,None,270.0962439938336,None,,,,,,,,,,,,,,,,,,,,,,,,,,,,,,,,,,,,,,,,,,,,,,01_JW,1,33,F,2022-11-22_17h07.03.843,dynamic target,2022.1.3,120.10361576697916,
0,1,1,2,mix,0,12,12,12,,,,,,,None,271.1286674410803,None,270.13786390579116,None,270.6290907831353,None,1,[0.008636177914013388],[0.5175876173743745],271.1286674410803,None,[2 3 3 0 1 1 0 1],space,0,3.5738531540155236,0.0025362679043610115,None,271.14532242307905,None,1,274.7172681224074,None,None,275.21684099593006,None,,,,,,,,,,,,,,,,,,,,,,,,,,,,,,,,,,,,,,,,,,,,,,01_JW,1,33,F,2022-11-22_17h07.03.843,dynamic target,2022.1.3,120.10361576697916,
1,2,2,2,mix,0,13,13,13,,,,,,,None,276.2492974766865,None,275.27515694123576,None,275.7497259501615,None,1,[0.009550532609864604],[0.5177040364396817],276.2492974766865,None,[3 3 3 0 2 3 2 0],space,0,8.532493597424036,0.0024397330926149152,None,276.2659700979384,None,1,284.8003159671134,None,None,285.29989589633954,None,,,,,,,,,,,,,,,,,,,,,,,,,,,,,,,,,,,,,,,,,,,,,,01_JW,1,33,F,2022-11-22_17h07.03.843,dynamic target,2022.1.3,120.10361576697916,
0,3,2,2,mix,0,14,14,14,,,,,,,None,286.3323401899761,None,285.34990631953406,None,285.83277219130105,None,1,[0.008740730572753819],[0.5170770411968988],286.3323401899761,None,[3 0 2 1 1 3 2 2],space,0,3.2499807672720635,0.0030462026516033802,None,286.3489910026983,None,1,289.59621763116957,None,None,290.09579531539896,None,,,,,,,,,,,,,,,,,,,,,,,,,,,,,,,,,,,,,,,,,,,,,,01_JW,1,33,F,2022-11-22_17h07.03.843,dynamic target,2022.1.3,120.10361576697916,
0,4,2,2,mix,0,15,15,15,,,,,,,None,291.12824698544864,None,290.1458060593068,None,290.62867321392696,None,1,[0.008699358510057209],[0.5176325172869838],291.12824698544864,None,[3 3 3 2 2 2 2 1],space,0,4.068428923586907,0.0022999019238341134,None,291.1449006845942,None,1,295.2164211175841,None,None,295.71599751895667,None,,,,,,,,,,,,,,,,,,,,,,,,,,,,,,,,,,,,,,,,,,,,,,01_JW,1,33,F,2022-11-22_17h07.03.843,dynamic target,2022.1.3,120.10361576697916,
0,5,1,2,mix,0,16,16,16,,,,,,,None,296.74844309545006,None,295.7576456537172,None,296.2488619475116,None,1,[0.008784668345469981],[0.5175642052745388],296.74844309545006,None,[0 0 3 2 1 1 3 2],space,0,4.288437544371845,0.002649800546350889,None,296.765082362479,None,1,301.0531024879019,None,None,301.55268979354116,None,,,,,,,,,,,,,,,,,,,,,,,,,,,,,,,,,,,,,,,,,,,,,,01_JW,1,33,F,2022-11-22_17h07.03.843,dynamic target,2022.1.3,120.10361576697916,
1,6,3,2,mix,0,17,17,17,,,,,,,None,302.58512029649137,None,301.60265788252946,None,302.08553978998316,None,1,[0.008673059986904263],[0.5171960259722255],302.58512029649137,None,[1 0 0 1 1 1 3 2],space,0,2.7084999809121655,0.0030266391186160035,None,302.60177335420667,None,1,305.30779340651134,None,None,305.80737493930394,None,,,,,,,,,,,,,,,,,,,,,,,,,,,,,,,,,,,,,,,,,,,,,,01_JW,1,33,F,2022-11-22_17h07.03.843,dynamic target,2022.1.3,120.10361576697916,
0,7,2,2,mix,0,18,18,18,,,,,,,None,306.8398173086607,None,305.8573750996584,None,306.34023038787564,None,1,[0.008616935090685729],[0.517255358001421],306.8398173086607,None,[2 0 0 0 0 0 1 1],space,0,4.020633605621697,0.0028983536540181376,None,306.8564710078026,None,1,310.8780329090696,None,None,311.3775932747627,None,,,,,,,,,,,,,,,,,,,,,,,,,,,,,,,,,,,,,,,,,,,,,,01_JW,1,33,F,2022-11-22_17h07.03.843,dynamic target,2022.1.3,120.10361576697916,
1,8,4,2,mix,0,19,19,19,,,,,,,None,312.4100449448124,None,311.4275600808942,None,311.91049586824374,None,1,[0.008113093907013535],[0.5168320159500581],312.4100449448124,None,[0 0 1 1 3 0 0 0],space,0,3.490684079541097,0.0027312618258292787,None,312.42670185109455,None,1,315.9153655847258,None,None,316.4149679639082,None,,,,,,,,,,,,,,,,,,,,,,,,,,,,,,,,,,,,,,,,,,,,,,01_JW,1,33,F,2022-11-22_17h07.03.843,dynamic target,2022.1.3,120.10361576697916,
0,2,3,0,mix,0,20,20,20,,,,,,,None,317.4390817197673,None,316.44826663878484,317.4474100125517,316.9395085896722,None,2,"[0.008606030827650102, 1.0086967928000377]","[0.04187013276896323, 1.516647284872306]",317.4390817197673,None,[0 1 2 2 0 3 2 1],space,0,4.101921373665391,0.0025632078577473294,None,318.45488135838605,None,1,322.5597063032401,None,None,323.05929521244946,None,,,,,,,,,,,,,,,,,,,,,,,,,,,,,,,,,,,,,,,,,,,,,,01_JW,1,33,F,2022-11-22_17h07.03.843,dynamic target,2022.1.3,120.10361576697916,
1,3,3,2,mix,0,21,21,21,,,,,,,None,324.0917330918128,None,323.1092931278108,324.108381338825,323.5921631688543,None,2,"[0.008606992967543192, 0.9921149335168593]","[0.5080909646603686, 1.4996238028543303]",324.0917330918128,None,[3 0 3 3 1 2 2 2],space,0,5.289307640578045,0.002803422397846589,None,325.09087806914977,None,1,330.3780319469297,None,None,330.87759968903595,None,,,,,,,,,,,,,,,,,,,,,,,,,,,,,,,,,,,,,,,,,,,,,,01_JW,1,33,F,2022-11-22_17h07.03.843,dynamic target,2022.1.3,120.10361576697916,
1,3,3,0,mix,0,22,22,22,,,,,,,None,331.91005328336905,None,330.9192292224034,None,331.41048143612716,None,1,[0.00944630066442187],[0.5176097466173815],331.91005328336905,None,[0 1 1 3 1 1 3 2],space,0,2.7735015876860416,0.0024897644216252957,None,331.92670313394774,None,1,334.69933669997044,None,None,335.19889834851676,None,,,,,,,,,,,,,,,,,,,,,,,,,,,,,,,,,,,,,,,,,,,,,,01_JW,1,33,F,2022-11-22_17h07.03.843,dynamic target,2022.1.3,120.10361576697916,
0,4,3,2,mix,0,23,23,23,,,,,,,None,336.23135258427646,None,335.2405711782303,None,335.7317791334681,None,1,[0.008619180091045564],[0.5173682492204534],336.23135258427646,None,[3 1 2 3 2 3 1 2],space,0,4.195431860680401,0.002804705254675355,None,336.2480110941251,None,1,340.4444408453237,None,None,340.94399415531336,None,,,,,,,,,,,,,,,,,,,,,,,,,,,,,,,,,,,,,,,,,,,,,,01_JW,1,33,F,2022-11-22_17h07.03.843,dynamic target,2022.1.3,120.10361576697916,
1,5,4,2,mix,0,24,24,24,,,,,,,None,341.97644101465994,None,341.00228797137606,None,341.4768989937911,None,1,[0.008915519527363358],[0.5176193680272263],341.97644101465994,None,[0 3 3 2 0 1 3 1],space,0,6.145338629215985,0.0025070829651667736,None,341.99311139091515,None,1,348.1378263822917,None,None,348.6374255543375,None,,,,,,,,,,,,,,,,,,,,,,,,,,,,,,,,,,,,,,,,,,,,,,01_JW,1,33,F,2022-11-22_17h07.03.843,dynamic target,2022.1.3,120.10361576697916,
0,6,1,2,mix,0,25,25,25,,,,,,,None,349.66989293935694,None,348.67906791625137,349.67819910289836,349.1702912657456,None,1,[0.041471164953691186],[0.5414878420669993],349.66989293935694,None,[1 1 2 3 3 0 1 2],space,0,3.052354112631292,0.0030112448657746427,None,349.71149655906265,None,1,352.7672090148735,None,None,353.2667985655095,None,,,,,,,,,,,,,,,,,,,,,,,,,,,,,,,,,,,,,,,,,,,,,,01_JW,1,33,F,2022-11-22_17h07.03.843,dynamic target,2022.1.3,120.10361576697916,
1,7,2,2,mix,0,26,26,26,,,,,,,None,354.29924029343965,None,353.3251173972385,354.3242254925026,353.7996559383646,None,1,[0.6249166946217883],[1.1252441432880005],354.29924029343965,None,[0 1 0 0 0 2 0 0],space,0,2.5276806472647877,0.0026552526833256707,None,354.92370093321006,None,1,357.4548864898061,None,None,357.95445936332874,None,,,,,,,,,,,,,,,,,,,,,,,,,,,,,,,,,,,,,,,,,,,,,,01_JW,1,33,F,2022-11-22_17h07.03.843,dynamic target,2022.1.3,120.10361576697916,
0,8,4,2,mix,0,27,27,27,,,,,,,None,358.98690878838534,None,358.01279134432116,None,358.4873279611638,None,1,[0.00856882804146153],[0.5169163636455778],358.98690878838534,None,[3 3 2 2 1 2 0 3],space,0,3.326953332783887,0.0028457566040742677,None,359.00357691964746,None,1,362.3340341996227,None,None,362.83362375025865,None,,,,,,,,,,,,,,,,,,,,,,,,,,,,,,,,,,,,,,,,,,,,,,01_JW,1,33,F,2022-11-22_17h07.03.843,dynamic target,2022.1.3,120.10361576697916,
1,1,3,2,mix,0,28,28,28,,,,,,,None,363.8660664403251,None,362.8919294327279,None,363.3664881788136,None,1,[0.008704810643394012],[0.5168858958495548],363.8660664403251,None,[1 3 0 2 1 0 1 2],space,0,4.880298280229908,0.0033133571450889576,None,363.8827336094437,None,1,368.7618880542468,None,None,369.2614583620631,None,,,,,,,,,,,,,,,,,,,,,,,,,,,,,,,,,,,,,,,,,,,,,,01_JW,1,33,F,2022-11-22_17h07.03.843,dynamic target,2022.1.3,120.10361576697916,
1,2,1,2,mix,0,29,29,29,,,,,,,None,370.29390105213315,None,369.31145627742444,None,369.79433048774445,None,1,[0.008612445104517974],[0.517271072974836],370.29390105213315,None,[3 0 3 1 2 0 1 2],space,0,10.019855554237438,0.0028107988146075513,None,370.3105672591082,None,1,380.33531929932724,None,None,380.83490339782986,None,,,,,,,,,,,,,,,,,,,,,,,,,,,,,,,,,,,,,,,,,,,,,,01_JW,1,33,F,2022-11-22_17h07.03.843,dynamic target,2022.1.3,120.10361576697916,
1,3,2,2,mix,0,30,30,30,,,,,,,None,381.8673435221899,None,380.88490612389796,None,381.36776750567515,None,1,[0.008613727954070782],[0.5170225198708067],381.8673435221899,None,[0 0 1 1 2 2 0 3],space,0,4.014817142360698,0.00312766393108177,None,381.88401678486844,None,1,385.8972311505313,None,None,386.3968101176175,None,,,,,,,,,,,,,,,,,,,,,,,,,,,,,,,,,,,,,,,,,,,,,,01_JW,1,33,F,2022-11-22_17h07.03.843,dynamic target,2022.1.3,120.10361576697916,
0,4,4,2,mix,0,31,31,31,,,,,,,None,387.4292537698275,None,386.4468298415086,387.4459074689694,386.9296803190191,None,1,[0.08312225027839304],[0.5922090309104533],387.4292537698275,None,[1 2 2 0 0 0 3 0],space,0,3.9443233138554206,0.002495857981557492,None,387.5208316362223,None,1,391.4674770673664,None,None,391.9670544308825,None,,,,,,,,,,,,,,,,,,,,,,,,,,,,,,,,,,,,,,,,,,,,,,01_JW,1,33,F,2022-11-22_17h07.03.843,dynamic target,2022.1.3,120.10361576697916,
0,5,4,2,mix,0,32,32,32,,,,,,,None,392.9994977623792,None,392.0170574776639,None,392.49993393298064,None,1,[0.009500501277216244],[0.5175225124985445],392.9994977623792,None,[0 2 0 2 2 0 1 0],space,0,3.4255801651015645,0.002572187837358797,None,393.01614504724785,None,1,396.44655434845845,None,None,396.9461195248547,None,,,,,,,,,,,,,,,,,,,,,,,,,,,,,,,,,,,,,,,,,,,,,,01_JW,1,33,F,2022-11-22_17h07.03.843,dynamic target,2022.1.3,120.10361576697916,
0,6,2,2,mix,0,33,33,33,,,,,,,None,397.97857696775463,None,397.0044348287338,None,397.4789913298264,None,1,[0.008662155723868636],[0.5173278392940119],397.97857696775463,None,[3 3 0 2 0 2 3 3],space,0,4.270145639758994,0.002805346684908727,None,397.9952316290364,None,1,402.26657849178446,None,None,402.76615328959053,None,,,,,,,,,,,,,,,,,,,,,,,,,,,,,,,,,,,,,,,,,,,,,,01_JW,1,33,F,2022-11-22_17h07.03.843,dynamic target,2022.1.3,120.10361576697916,
1,7,4,2,mix,0,34,34,34,,,,,,,None,403.79858764110395,None,402.80779340651134,403.806921706735,403.29902830169885,None,2,"[0.09982950860648998, 0.8169703076855512]","[0.10805453158536693, 1.3241575012034446]",403.79858764110395,None,[3 3 1 2 0 1 1 2],space,0,3.5302691273536766,0.003227405879442813,None,404.6228981227323,None,1,408.1532042824256,None,None,408.65278100451144,None,,,,,,,,,,,,,,,,,,,,,,,,,,,,,,,,,,,,,,,,,,,,,,01_JW,1,33,F,2022-11-22_17h07.03.843,dynamic target,2022.1.3,120.10361576697916,
0,8,4,2,mix,0,35,35,35,,,,,,,None,409.685239088838,None,408.7027962384127,None,409.18567109016294,None,1,[0.008662155720230658],[0.5173275185807142],409.685239088838,None,[1 0 2 1 3 0 3 2],space,0,6.898141827117797,0.0027113775722682476,None,409.7019113893766,None,1,416.60432976293305,None,None,417.1039045607391,None,,,,,,,,,,,,,,,,,,,,,,,,,,,,,,,,,,,,,,,,,,,,,,01_JW,1,33,F,2022-11-22_17h07.03.843,dynamic target,2022.1.3,120.10361576697916,
0,1,4,2,mix,0,36,36,36,,,,,,,None,418.1280096573282,None,417.14553249054006,418.14466367718705,417.6284474314998,None,2,"[0.075137762560189, 0.09177959529915825]","[0.08435154580729431, 0.5923491827888938]",418.1280096573282,None,[3 1 1 1 2 2 3 3],space,0,3.3084827906532155,0.0023592339566675946,None,418.2196006729828,None,1,421.53343600446897,None,None,422.0329960494488,None,,,,,,,,,,,,,,,,,,,,,,,,,,,,,,,,,,,,,,,,,,,,,,01_JW,1,33,F,2022-11-22_17h07.03.843,dynamic target,2022.1.3,120.10361576697916,
0,2,2,2,mix,0,37,37,37,,,,,,,None,423.0654653587517,None,422.0830006997967,None,422.5658781172533,None,1,[0.008720525613171048],[0.5174522762026754],423.0654653587517,None,[1 3 3 1 2 1 2 1],space,0,3.0537020722185844,0.002698228316148743,None,423.08211104005386,None,1,426.1378270237183,None,None,426.6374088772242,None,,,,,,,,,,,,,,,,,,,,,,,,,,,,,,,,,,,,,,,,,,,,,,01_JW,1,33,F,2022-11-22_17h07.03.843,dynamic target,2022.1.3,120.10361576697916,
0,3,2,2,mix,0,38,38,38,,,,,,,None,427.6698676671218,None,426.6790339206018,None,427.1702887000356,None,1,[0.008596409417805262],[0.5088937109976541],427.6698676671218,None,[1 2 2 0 0 0 2 3],space,0,3.545205725469714,0.0028826386806031223,None,427.6781891607752,None,1,431.22514805746687,None,None,431.7247340802529,None,,,,,,,,,,,,,,,,,,,,,,,,,,,,,,,,,,,,,,,,,,,,,,01_JW,1,33,F,2022-11-22_17h07.03.843,dynamic target,2022.1.3,120.10361576697916,
1,4,2,2,mix,0,39,39,39,,,,,,,None,432.7571806188862,None,431.774740013454,None,432.25763410802756,None,1,[0.008634574343886925],[0.5173676077902201],432.7571806188862,None,[1 1 1 3 2 1 0 2],space,0,4.28913862447007,0.002271679120894987,None,432.77383977016143,None,0,437.07016188984926,None,None,437.56973572551544,None,,,,,,,,,,,,,,,,,,,,,,,,,,,,,,,,,,,,,,,,,,,,,,01_JW,1,33,F,2022-11-22_17h07.03.843,dynamic target,2022.1.3,120.10361576697916,
1,5,3,2,mix,0,40,40,40,,,,,,,None,438.6021832262886,None,437.61974037586333,438.6188285868775,438.1026014369236,None,1,[0.024829011501424247],[0.5328834148058377],438.6021832262886,None,[2 2 1 3 0 2 0 3],space,0,3.788443317214842,0.003387442007806385,None,438.63549158671594,None,1,442.43223608631524,None,None,442.93183108908454,None,,,,,,,,,,,,,,,,,,,,,,,,,,,,,,,,,,,,,,,,,,,,,,01_JW,1,33,F,2022-11-22_17h07.03.843,dynamic target,2022.1.3,120.10361576697916,
1,6,2,2,mix,0,41,41,41,,,,,,,None,443.9643135476508,None,442.9901393372638,None,443.46468621694294,None,1,[0.00865991072714678],[0.5175885795142676],443.9643135476508,None,[0 2 1 3 3 0 2 2],space,0,3.6093959266399906,0.002392908892943524,None,443.98091208404,None,1,447.59449539872,None,None,448.09406474439277,None,,,,,,,,,,,,,,,,,,,,,,,,,,,,,,,,,,,,,,,,,,,,,,01_JW,1,33,F,2022-11-22_17h07.03.843,dynamic target,2022.1.3,120.10361576697916,
1,7,4,2,mix,0,42,42,42,,,,,,,None,449.12651481087596,None,448.1523822932686,None,448.6269330215109,None,1,[0.00921474539063638],[0.5174163562696776],449.12651481087596,None,[2 3 1 2 3 1 2 0],space,0,3.71139762898747,0.0026424241332279053,None,449.1431653028849,None,1,452.85665477674047,None,None,453.35623310239646,None,,,,,,,,,,,,,,,,,,,,,,,,,,,,,,,,,,,,,,,,,,,,,,01_JW,1,33,F,2022-11-22_17h07.03.843,dynamic target,2022.1.3,120.10361576697916,
0,7,1,0,mix,0,43,43,43,,,,,,,None,454.3886941372872,None,453.3978462793675,None,453.88912864017766,None,1,[0.00867530498362612],[0.508930593070545],454.3886941372872,None,[3 3 2 0 3 3 2 1],space,0,4.201779105078458,0.0029124650500307325,None,454.39700729238757,None,1,458.60175122496366,None,None,459.10132955061965,None,,,,,,,,,,,,,,,,,,,,,,,,,,,,,,,,,,,,,,,,,,,,,,01_JW,1,33,F,2022-11-22_17h07.03.843,dynamic target,2022.1.3,120.10361576697916,
1,8,1,2,mix,0,44,44,44,,,,,,,None,460.1337680714132,None,459.1513345216845,460.15044261694493,459.63419975202123,None,3,"[0.008647402890346712, 0.12514183562234393, 0.14231797734828433]","[0.025208415783708915, 0.13348520194995217, 0.6504791783045221]",460.1337680714132,None,[3 0 3 1 1 0 1 1],space,0,4.954169544475008,0.002831324494763976,None,460.28363436587824,None,1,465.2377386350272,None,None,465.73732048853674,None,,,,,,,,,,,,,,,,,,,,,,,,,,,,,,,,,,,,,,,,,,,,,,01_JW,1,33,F,2022-11-22_17h07.03.843,dynamic target,2022.1.3,120.10361576697916,
0,8,1,0,mix,0,45,45,45,,,,,,,None,466.76977857285965,None,465.7873190453247,466.78642361273523,466.2701894070815,None,2,"[0.008562734481529333, 0.8086997433638317]","[0.10008030670360313, 1.3159212532445963]",466.76977857285965,None,[3 0 2 1 1 2 1 3],space,0,4.292765254736878,0.0034397183371766005,None,467.5857444053072,None,1,471.8820610728617,None,None,472.3816384363778,None,,,,,,,,,,,,,,,,,,,,,,,,,,,,,,,,,,,,,,,,,,,,,,01_JW,1,33,F,2022-11-22_17h07.03.843,dynamic target,2022.1.3,120.10361576697916,
1,2,3,0,mix,0,46,46,46,,,,,,,None,473.4141016521244,None,472.4232782325853,473.4224151920753,472.91450927920596,None,2,"[0.008688454243383603, 1.0169814685214078]","[0.43319854806395597, 1.5249348470169934]",473.4141016521244,None,[1 0 3 2 0 3 3 1],space,0,3.8225512168428395,0.0026254263138980605,None,474.438215151411,None,1,478.2599451707865,None,None,478.7595177235995,None,,,,,,,,,,,,,,,,,,,,,,,,,,,,,,,,,,,,,,,,,,,,,,01_JW,1,33,F,2022-11-22_17h07.03.843,dynamic target,2022.1.3,120.10361576697916,
1,3,1,2,mix,0,47,47,47,,,,,,,None,479.79196265866267,None,478.80953231607054,None,479.2923991499774,None,1,[0.009637446015403839],[0.5174946104052651],479.79196265866267,None,[2 0 1 0 0 3 1 3],space,0,3.300443140182324,0.0027155468524142634,None,479.80860801925155,None,1,483.1141275657865,None,None,483.6137058914461,None,,,,,,,,,,,,,,,,,,,,,,,,,,,,,,,,,,,,,,,,,,,,,,01_JW,1,33,F,2022-11-22_17h07.03.843,dynamic target,2022.1.3,120.10361576697916,
1,4,3,2,mix,0,48,48,48,,,,,,,None,484.6461537129326,None,483.67203177887495,484.67112351773903,484.14657096142764,None,2,"[0.00899313223635545, 0.6254962242383044]","[0.10936881624002126, 1.1330782162913238]",484.6461537129326,None,[0 0 0 1 2 1 0 3],space,0,3.317515691389417,0.0026982283125107642,None,485.2789378347843,None,1,488.60109728977477,None,None,489.10067593614406,None,,,,,,,,,,,,,,,,,,,,,,,,,,,,,,,,,,,,,,,,,,,,,,01_JW,1,33,F,2022-11-22_17h07.03.843,dynamic target,2022.1.3,120.10361576697916,
1,5,3,2,mix,0,49,49,49,,,,,,,None,490.133128247624,None,489.1506889250486,490.1497793810595,489.633556721099,None,1,[0.13307725415143068],[0.641949798045971],490.133128247624,None,[2 1 2 0 1 2 3 0],space,0,2.94531945054041,0.0026340855802118313,None,490.27466689073844,None,1,493.2221490638658,None,None,493.72173348308536,None,,,,,,,,,,,,,,,,,,,,,,,,,,,,,,,,,,,,,,,,,,,,,,01_JW,1,33,F,2022-11-22_17h07.03.843,dynamic target,2022.1.3,120.10361576697916,
1,4,1,1,mix,0,50,50,50,,,,,,,None,494.7458510875076,None,493.7550289508217,None,494.2462878995357,None,1,[0.0086945478033158],[0.5175674124147918],494.7458510875076,None,[3 1 1 2 3 2 0 1],space,0,3.99322862185727,0.0024830294350977056,None,494.7625416687224,None,1,498.7591161259297,None,None,499.25865500380644,None,,,,,,,,,,,,,,,,,,,,,,,,,,,,,,,,,,,,,,,,,,,,,,01_JW,1,33,F,2022-11-22_17h07.03.843,dynamic target,2022.1.3,120.10361576697916,
1,5,1,2,mix,0,51,51,51,,,,,,,None,500.2910964110197,None,499.30027812290064,None,499.7915380337545,None,1,[0.00899890508298995],[0.5175908245109895],500.2910964110197,None,[2 2 0 3 3 3 2 3],space,0,3.1520447522198083,0.0026257470199197996,None,500.3077552415816,None,1,503.4634049658016,None,None,503.96297751861096,None,,,,,,,,,,,,,,,,,,,,,,,,,,,,,,,,,,,,,,,,,,,,,,01_JW,1,33,F,2022-11-22_17h07.03.843,dynamic target,2022.1.3,120.10361576697916,
0,6,1,2,mix,0,52,52,52,,,,,,,None,504.9954398363585,None,504.00459743056854,None,504.4958403435994,None,1,[0.008655420733703068],[0.5090668963821372],504.9954398363585,None,[1 1 2 2 0 0 3 1],space,0,3.112059453735128,0.0026568562498141546,None,505.00374978431864,None,0,508.12608665811786,None,None,508.6256550416507,None,,,,,,,,,,,,,,,,,,,,,,,,,,,,,,,,,,,,,,,,,,,,,,01_JW,1,33,F,2022-11-22_17h07.03.843,dynamic target,2022.1.3,120.10361576697916,
0,7,3,2,mix,0,53,53,53,,,,,,,None,509.6581022217106,None,508.6755974735461,None,509.15852267734226,None,1,[0.008613727957708761],[0.5168756330094766],509.6581022217106,None,[1 1 3 2 3 2 0 1],space,0,4.441837782855146,0.003127984640741488,None,509.674754317286,None,1,514.1209517114221,None,None,514.6205284335116,None,,,,,,,,,,,,,,,,,,,,,,,,,,,,,,,,,,,,,,,,,,,,,,01_JW,1,33,F,2022-11-22_17h07.03.843,dynamic target,2022.1.3,120.10361576697916,
0,8,4,2,mix,0,54,54,54,,,,,,,None,515.652984914268,None,514.6621493076091,None,515.153403124903,None,1,[0.008687492099852534],[0.5175497731579526],515.652984914268,None,[1 3 0 1 2 2 3 2],space,0,3.949159355401207,0.0026571769631118514,None,515.6696264262937,None,1,519.616242351778,None,None,520.1158248467142,None,,,,,,,,,,,,,,,,,,,,,,,,,,,,,,,,,,,,,,,,,,,,,,01_JW,1,33,F,2022-11-22_17h07.03.843,dynamic target,2022.1.3,120.10361576697916,
1,1,1,2,mix,0,55,55,55,,,,,,,None,521.1482771581941,None,520.1657865214293,None,520.6487069145223,None,1,[0.008951760170020862],[0.517427581246011],521.1482771581941,None,[3 1 0 2 3 3 1 3],space,0,2.901845428667002,0.0027575603489822242,None,521.1649311780493,None,1,524.0707824708152,None,None,524.5703572686213,None,,,,,,,,,,,,,,,,,,,,,,,,,,,,,,,,,,,,,,,,,,,,,,01_JW,1,33,F,2022-11-22_17h07.03.843,dynamic target,2022.1.3,120.10361576697916,
1,2,2,2,mix,0,56,56,56,,,,,,,None,525.6027967515547,None,524.6203660882456,None,525.1032249043128,None,1,[0.008642271473945584],[0.5175674124111538],525.6027967515547,None,[3 1 1 3 0 0 1 0],space,0,3.0548653007281246,0.0025523035947117023,None,525.6194594306799,None,0,528.6751779800543,None,None,529.1747466843004,None,,,,,,,,,,,,,,,,,,,,,,,,,,,,,,,,,,,,,,,,,,,,,,01_JW,1,33,F,2022-11-22_17h07.03.843,dynamic target,2022.1.3,120.10361576697916,
0,3,1,2,mix,0,57,57,57,,,,,,,None,530.2071925815071,None,529.2163688412547,None,529.7076287521086,None,1,[0.009400438608281547],[0.5175276439149457],530.2071925815071,None,[1 0 1 2 3 3 0 0],space,0,3.2669272780040046,0.0027588431985350326,None,530.2238498084989,None,1,533.4960725402998,None,None,533.9956466966793,None,,,,,,,,,,,,,,,,,,,,,,,,,,,,,,,,,,,,,,,,,,,,,,01_JW,1,33,F,2022-11-22_17h07.03.843,dynamic target,2022.1.3,120.10361576697916,
1,4,3,2,mix,0,58,58,58,,,,,,,None,535.0280720682094,None,534.0372470451039,None,534.5285066352444,None,1,[0.008680436400027247],[0.5175683745510469],535.0280720682094,None,[3 0 2 3 1 2 0 2],space,0,3.533501921225252,0.0025891856603266206,None,535.0447328230548,None,1,538.5833740105154,None,None,539.0829433561918,None,,,,,,,,,,,,,,,,,,,,,,,,,,,,,,,,,,,,,,,,,,,,,,01_JW,1,33,F,2022-11-22_17h07.03.843,dynamic target,2022.1.3,120.10361576697916,
1,3,1,1,mix,0,59,59,59,,,,,,,None,540.1153866876884,None,539.1329101623232,None,539.6158228582899,None,1,[0.008639705763926031],[0.5176244994472654],540.1153866876884,None,[1 0 0 1 0 1 0 1],space,0,4.3663882865985215,0.002516704371373635,None,540.1320496875269,None,1,544.5033113687205,None,space,545.019525369411,None,4.90768754902092,,,,,,,,,,,,,,,,,,,,,,,,,,,,,,,,,,,,,,,,,,,,,01_JW,1,33,F,2022-11-22_17h07.03.843,dynamic target,2022.1.3,120.10361576697916,
0,4,2,2,mix,0,60,60,60,,,,,,,None,550.9727746800378,None,549.9903535739977,None,550.464885059424,None,1,[0.008648685747175477],[0.5164715337741654],550.9727746800378,None,[3 1 3 3 0 3 1 3],space,0,3.4044153073664347,0.002856340153812198,None,550.9811061158143,None,1,554.3865119372822,None,None,554.8860969979247,None,,,,,,,,,,,,,,,,,,,,,,,,,,,,,,,,,,,,,,,,,,,,,,01_JW,1,33,F,2022-11-22_17h07.03.843,dynamic target,2022.1.3,120.10361576697916,
0,5,4,2,mix,0,61,61,61,,,,,,,None,555.918532632295,None,554.944432506767,None,555.418969444323,None,1,[0.008670173563587014],[0.5174426547928306],555.918532632295,None,[3 0 0 0 0 3 0 1],space,0,3.5540548572644184,0.0026488384064577986,None,555.9352020464066,None,1,559.4904978951563,None,None,559.9900659579722,None,,,,,,,,,,,,,,,,,,,,,,,,,,,,,,,,,,,,,,,,,,,,,,01_JW,1,33,F,2022-11-22_17h07.03.843,dynamic target,2022.1.3,120.10361576697916,
0,6,2,2,mix,0,62,62,62,,,,,,,None,561.0225205144488,None,560.04007926759,None,560.5229393665104,None,1,[0.008634253630589228],[0.5173044271941762],561.0225205144488,None,[3 1 0 2 0 1 2 2],space,0,7.7305224270203325,0.002933311439846875,None,561.0392033985372,None,1,568.774228154427,None,None,569.273809045793,None,,,,,,,,,,,,,,,,,,,,,,,,,,,,,,,,,,,,,,,,,,,,,,01_JW,1,33,F,2022-11-22_17h07.03.843,dynamic target,2022.1.3,120.10361576697916,
0,7,1,2,mix,0,63,63,63,,,,,,,None,570.3062411523097,None,569.3154318441739,None,569.8066709086379,None,1,[0.008615331524197245],[0.5178012126816611],570.3062411523097,None,[1 2 2 2 0 3 1 0],space,0,2.6051362075704674,0.0023621203799848445,None,570.3229025485816,None,1,572.9290074617238,None,None,573.4285755245434,None,,,,,,,,,,,,,,,,,,,,,,,,,,,,,,,,,,,,,,,,,,,,,,01_JW,1,33,F,2022-11-22_17h07.03.843,dynamic target,2022.1.3,120.10361576697916,
0,8,3,2,mix,0,64,64,64,,,,,,,None,574.4610438717064,None,573.4868853762891,None,573.9614482916513,None,1,[0.00869550994320889],[0.5174307883826259],574.4610438717064,None,[1 0 3 3 0 1 2 0],space,0,3.1712205437215744,0.002796687411318999,None,574.4776831387317,None,1,577.649962829284,None,None,578.1495392306566,None,,,,,,,,,,,,,,,,,,,,,,,,,,,,,,,,,,,,,,,,,,,,,,01_JW,1,33,F,2022-11-22_17h07.03.843,dynamic target,2022.1.3,120.10361576697916,
0,1,3,2,mix,0,65,65,65,,,,,,,None,579.1819944285598,None,578.207860948809,None,578.6824232227482,None,1,[0.009631352455471642],[0.5174926861254789],579.1819944285598,None,[0 3 0 2 2 2 1 1],space,0,4.033326170130749,0.002599127790745115,None,579.1986336955888,None,1,583.2368505788545,None,None,583.7364385259203,None,,,,,,,,,,,,,,,,,,,,,,,,,,,,,,,,,,,,,,,,,,,,,,01_JW,1,33,F,2022-11-22_17h07.03.843,dynamic target,2022.1.3,120.10361576697916,
1,2,1,2,mix,0,66,66,66,,,,,,,None,584.768879291707,None,583.7780568343114,584.7772050187814,584.2693013509088,None,2,"[0.007708032531809295, 0.7823524733139493]","[0.1658336663422233, 1.282474665222253]",584.768879291707,None,[3 3 3 3 2 3 0 2],space,0,3.8087307023270114,0.002803101688186871,None,585.5515444608573,None,1,589.3649548467183,None,None,589.8645238716814,None,,,,,,,,,,,,,,,,,,,,,,,,,,,,,,,,,,,,,,,,,,,,,,01_JW,1,33,F,2022-11-22_17h07.03.843,dynamic target,2022.1.3,120.10361576697916,
0,3,3,2,mix,0,67,67,67,,,,,,,None,590.8969774660145,None,589.9061675164485,None,590.3973889416629,None,1,[0.008634895057184622],[0.5174051312897063],590.8969774660145,None,[0 1 1 0 0 2 0 2],space,0,2.6855221287551103,0.002696945462957956,None,590.9136388622865,None,1,593.6029888590456,None,None,594.102574240405,None,,,,,,,,,,,,,,,,,,,,,,,,,,,,,,,,,,,,,,,,,,,,,,01_JW,1,33,F,2022-11-22_17h07.03.843,dynamic target,2022.1.3,120.10361576697916,
0,4,1,2,mix,0,68,68,68,,,,,,,None,595.135004101925,None,594.1525788907529,None,594.6354470075166,None,1,[0.008662155723868636],[0.5175263610617549],595.135004101925,None,[0 1 1 2 3 0 3 1],space,0,3.3757075846442604,0.002618049893499119,None,595.1516712710436,None,1,598.5321088912715,None,None,599.0316734262411,None,,,,,,,,,,,,,,,,,,,,,,,,,,,,,,,,,,,,,,,,,,,,,,01_JW,1,33,F,2022-11-22_17h07.03.843,dynamic target,2022.1.3,120.10361576697916,
1,5,4,2,mix,0,69,69,69,,,,,,,None,600.0641315105677,None,599.0733151467284,None,599.5645615876092,None,1,[0.00928305739944335],[0.5175738266843837],600.0641315105677,None,[0 2 0 3 0 2 3 0],space,0,2.0461184765918006,0.002699831882637227,None,600.0807714190232,None,1,602.1290401103761,None,None,602.6286319060051,None,,,,,,,,,,,,,,,,,,,,,,,,,,,,,,,,,,,,,,,,,,,,,,01_JW,1,33,F,2022-11-22_17h07.03.843,dynamic target,2022.1.3,120.10361576697916,
1,6,3,2,mix,0,70,70,70,,,,,,,None,603.6610575982522,None,602.6786218035268,603.6777161081009,603.1615091631102,None,2,"[0.00870994205979514, 0.9419299779438006]","[0.391565422705753, 1.4495684156063362]",603.6610575982522,None,[0 0 1 3 2 1 2 2],space,0,2.6845558184431866,0.0029317078733583912,None,604.6102530238459,None,1,607.2996145663019,None,None,607.7992150212009,None,,,,,,,,,,,,,,,,,,,,,,,,,,,,,,,,,,,,,,,,,,,,,,01_JW,1,33,F,2022-11-22_17h07.03.843,dynamic target,2022.1.3,120.10361576697916,
0,7,3,2,mix,0,71,71,71,,,,,,,None,608.8316336577445,None,607.8491600188063,608.8482854326066,608.3320685454928,None,2,"[0.008606672257883474, 0.03350175077866879]","[0.016855428049893817, 0.5425176536846266]",608.8316336577445,None,[3 3 3 0 1 2 3 3],space,0,3.4767182817304274,0.002442940229229862,None,608.8732664623931,None,1,612.353623070343,None,None,612.8531975474358,None,,,,,,,,,,,,,,,,,,,,,,,,,,,,,,,,,,,,,,,,,,,,,,01_JW,1,33,F,2022-11-22_17h07.03.843,dynamic target,2022.1.3,120.10361576697916,
0,8,2,2,mix,0,72,72,72,,,,,,,None,613.8856543489092,None,612.9032207991768,613.9022993887811,613.3860683902676,None,1,[0.8842137030696904],[1.391389030181017],613.8856543489092,None,[1 3 0 0 1 1 3 3],space,0,2.1982599138937076,0.002846718747605337,None,614.7765498007393,None,1,616.9746985772472,None,None,617.4742483593869,None,,,,,,,,,,,,,,,,,,,,,,,,,,,,,,,,,,,,,,,,,,,,,,01_JW,1,33,F,2022-11-22_17h07.03.843,dynamic target,2022.1.3,120.10361576697916,
1,1,1,2,mix,0,73,73,73,,,,,,,None,618.506679824477,None,617.5325720018227,618.5316800970832,617.9988066244041,None,2,"[0.36723319668817567, 1.0086223872276605]","[0.6917957592668245, 1.5164045046149113]",618.506679824477,None,[3 2 3 2 2 2 3 1],space,0,2.612500435039692,0.002789631707855733,None,619.5141672059981,None,0,622.136921969719,None,None,622.6365243489014,None,,,,,,,,,,,,,,,,,,,,,,,,,,,,,,,,,,,,,,,,,,,,,,01_JW,1,33,F,2022-11-22_17h07.03.843,dynamic target,2022.1.3,120.10361576697916,
1,2,2,2,mix,0,74,74,74,,,,,,,None,623.6689484375784,None,622.6864985314496,623.6856063060004,623.1693730624866,None,2,"[0.00863778148413985, 0.24174274529650575]","[0.05886154341715155, 0.7420281804697879]",623.6689484375784,None,[2 1 0 3 3 1 0 1],space,0,3.8635470841254573,0.0026158049004152417,None,623.9104095962648,None,1,627.7820987887899,None,None,628.2816764730193,None,,,,,,,,,,,,,,,,,,,,,,,,,,,,,,,,,,,,,,,,,,,,,,01_JW,1,33,F,2022-11-22_17h07.03.843,dynamic target,2022.1.3,120.10361576697916,
1,3,2,2,mix,0,75,75,75,,,,,,,None,629.314118842376,None,628.323300554257,629.3224365516071,628.8145476365644,None,1,[0.3665876000522985],[0.866707867680816],629.314118842376,None,[1 2 2 0 0 3 1 0],space,0,3.661412478031707,0.0029801356358802877,None,629.6804700764515,None,1,633.343993642171,None,None,633.8435924935035,None,,,,,,,,,,,,,,,,,,,,,,,,,,,,,,,,,,,,,,,,,,,,,,01_JW,1,33,F,2022-11-22_17h07.03.843,dynamic target,2022.1.3,120.10361576697916,
0,4,4,2,mix,0,76,76,76,,,,,,,None,634.8760297314402,None,633.8935843153049,634.8926898448553,634.3764562806318,None,2,"[0.00958933896254166, 0.7748942767357221]","[0.13339315712437383, 1.2750180722141522]",634.8760297314402,None,[0 1 3 2 3 2 0 0],space,0,5.739685537504556,0.0027235646957706194,None,635.6503688527991,None,1,641.3871408568048,None,None,641.8867050710575,None,,,,,,,,,,,,,,,,,,,,,,,,,,,,,,,,,,,,,,,,,,,,,,01_JW,1,33,F,2022-11-22_17h07.03.843,dynamic target,2022.1.3,120.10361576697916,
1,5,3,2,mix,0,77,77,77,,,,,,,None,642.9191564203975,None,641.9367209463853,None,642.419564368196,None,1,[0.008613086527475389],[0.5176722857831919],642.9191564203975,None,[2 3 1 2 1 1 0 0],space,0,2.037298529743566,0.0022046499616408255,None,642.9358152509594,None,1,644.9757360859949,None,None,645.4753083180909,None,,,,,,,,,,,,,,,,,,,,,,,,,,,,,,,,,,,,,,,,,,,,,,01_JW,1,33,F,2022-11-22_17h07.03.843,dynamic target,2022.1.3,120.10361576697916,
1,6,2,2,mix,0,78,78,78,,,,,,,None,646.4994172632469,None,645.5252574849728,646.5244027830231,645.999859206695,None,2,"[0.00866472143025021, 0.7834772161804722]","[0.3999171275863773, 1.2914039754396072]",646.4994172632469,None,[1 3 0 2 1 1 1 1],space,0,2.93098643556732,0.003178015973389847,None,647.2904148944544,None,1,650.2212308606067,None,None,650.7208204112427,None,,,,,,,,,,,,,,,,,,,,,,,,,,,,,,,,,,,,,,,,,,,,,,01_JW,1,33,F,2022-11-22_17h07.03.843,dynamic target,2022.1.3,120.10361576697916,
1,7,4,2,mix,0,79,79,79,,,,,,,None,651.7532724020093,None,650.762445133907,651.7615990912236,651.2537011961977,None,2,"[0.1413802105562354, 0.20006055074190954]","[0.1829924895282602, 0.7082086024383898]",651.7532724020093,None,[2 0 0 3 0 1 1 2],space,0,2.195102167021105,0.0028553780139191076,None,651.9614226345584,None,1,654.1595399811267,None,None,654.6591163825029,None,,,,,,,,,,,,,,,,,,,,,,,,,,,,,,,,,,,,,,,,,,,,,,01_JW,1,33,F,2022-11-22_17h07.03.843,dynamic target,2022.1.3,120.10361576697916,
0,8,1,2,mix,0,80,80,80,,,,,,,None,655.6915715804062,None,654.709072925798,655.7082098852916,655.1836576496935,None,2,"[0.008624952934042085, 1.009173052611004]","[0.39986902053351514, 1.5163557561390917]",655.6915715804062,None,[3 0 0 1 0 2 1 3],space,0,2.337894800613867,0.0028316452080616727,None,656.6990442090973,None,1,659.0387014816297,None,None,659.5382862215625,None,,,,,,,,,,,,,,,,,,,,,,,,,,,,,,,,,,,,,,,,,,,,,,01_JW,1,33,F,2022-11-22_17h07.03.843,dynamic target,2022.1.3,120.10361576697916,
0,1,2,2,mix,0,81,81,81,,,,,,,None,660.5624099836856,None,659.5882385955811,None,660.0628332615997,None,1,[0.008714111336303176],[0.5089135952439392],660.5624099836856,None,[3 1 0 0 1 0 1 0],space,0,2.3856346351130924,0.0029288214500411414,None,660.5707632279955,None,1,662.9603662037043,None,None,663.4599297765304,None,,,,,,,,,,,,,,,,,,,,,,,,,,,,,,,,,,,,,,,,,,,,,,01_JW,1,33,F,2022-11-22_17h07.03.843,dynamic target,2022.1.3,120.10361576697916,
0,2,1,2,mix,0,82,82,82,,,,,,,None,664.4923814465837,None,663.5098914512455,664.5090264864593,663.9928073543488,None,2,"[0.06640601197068463, 0.9834476463765895]","[0.5168801229992823, 1.4908513216287247]",664.4923814465837,None,[1 3 2 1 2 3 3 0],space,0,3.601103553788562,0.0028717344139295164,None,665.4832202603793,None,1,669.088443531622,None,None,669.5880343651112,None,,,,,,,,,,,,,,,,,,,,,,,,,,,,,,,,,,,,,,,,,,,,,,01_JW,1,33,F,2022-11-22_17h07.03.843,dynamic target,2022.1.3,120.10361576697916,
1,3,4,2,mix,0,83,83,83,,,,,,,None,670.620462943778,None,669.6296680677551,None,670.1208782679896,None,1,[0.008627197930763941],[0.5176103880439769],670.620462943778,None,[3 2 3 3 2 1 2 2],space,0,3.2623176603119646,0.0025539071575622074,None,670.6371313957497,None,1,673.9009995362467,None,None,674.400569523346,None,,,,,,,,,,,,,,,,,,,,,,,,,,,,,,,,,,,,,,,,,,,,,,01_JW,1,33,F,2022-11-22_17h07.03.843,dynamic target,2022.1.3,120.10361576697916,
1,4,4,2,mix,0,84,84,84,,,,,,,None,675.4330179862627,None,674.458908239325,675.4580019024725,674.9334480633042,None,1,[0.40780572191943065],[0.9082309882542177],675.4330179862627,None,[0 2 3 2 0 2 0 1],space,0,3.2266636000458675,0.0028617922907869797,None,675.8410302477896,None,1,679.0715711057492,None,None,679.5711612978117,None,,,,,,,,,,,,,,,,,,,,,,,,,,,,,,,,,,,,,,,,,,,,,,01_JW,1,33,F,2022-11-22_17h07.03.843,dynamic target,2022.1.3,120.10361576697916,
0,3,4,1,mix,0,85,85,85,,,,,,,None,680.603594366472,None,679.629431060348,680.6285731512617,680.1040298956432,None,2,"[0.007762553854263388, 0.7578483447650797]","[0.25004762598109664, 1.2654159047051508]",680.603594366472,None,[1 0 1 1 1 1 1 1],space,0,6.561681428520387,0.0032033523530117236,None,681.3696128921765,None,1,687.9306703621405,None,None,688.4302377835335,None,,,,,,,,,,,,,,,,,,,,,,,,,,,,,,,,,,,,,,,,,,,,,,01_JW,1,33,F,2022-11-22_17h07.03.843,dynamic target,2022.1.3,120.10361576697916,
1,4,4,2,mix,0,86,86,86,,,,,,,None,689.4627065155543,None,688.480197854682,None,688.9547931621273,None,1,[0.00867049427688471],[0.5165776900030323],689.4627065155543,None,[2 0 2 2 1 1 0 0],space,0,3.995579453116079,0.002170975029002875,None,689.4710318577709,None,1,693.4676018249884,None,None,693.9671718120877,None,,,,,,,,,,,,,,,,,,,,,,,,,,,,,,,,,,,,,,,,,,,,,,01_JW,1,33,F,2022-11-22_17h07.03.843,dynamic target,2022.1.3,120.10361576697916,
1,5,2,2,mix,0,87,87,87,,,,,,,None,694.9996238028543,None,694.0171443910695,695.0162704462964,694.5000333542193,None,2,"[0.05105376892970526, 0.7753022245342436]","[0.40826754961381084, 1.2832286630800809]",694.9996238028543,None,[3 1 3 3 3 2 3 3],space,0,4.116630265070853,0.002783858864859212,None,695.7822883305744,None,0,699.912095588068,None,None,700.4116854594173,None,,,,,,,,,,,,,,,,,,,,,,,,,,,,,,,,,,,,,,,,,,,,,,01_JW,1,33,F,2022-11-22_17h07.03.843,dynamic target,2022.1.3,120.10361576697916,
1,6,4,2,mix,0,88,88,88,,,,,,,None,701.4441114723741,None,700.4616708669455,None,700.9445402665624,None,1,[0.00888280673098052],[0.5174740847323847],701.4441114723741,None,[0 0 2 2 2 0 3 0],space,0,3.3494732058061345,0.002695983315788908,None,701.460764530093,None,1,704.8078912241799,None,None,705.3074791712494,None,,,,,,,,,,,,,,,,,,,,,,,,,,,,,,,,,,,,,,,,,,,,,,01_JW,1,33,F,2022-11-22_17h07.03.843,dynamic target,2022.1.3,120.10361576697916,
1,7,3,2,mix,0,89,89,89,,,,,,,None,706.3399180127526,None,705.357486066594,706.356578767598,705.8403525797876,None,2,"[0.15846975958993426, 0.8835296207980718]","[0.5424749987687392, 1.3912812703856616]",706.3399180127526,None,[3 1 1 1 2 1 2 1],space,0,3.0197926943619677,0.0031385681904794183,None,707.2308298209828,None,1,710.2532464241995,None,None,710.7528154491625,None,,,,,,,,,,,,,,,,,,,,,,,,,,,,,,,,,,,,,,,,,,,,,,01_JW,1,33,F,2022-11-22_17h07.03.843,dynamic target,2022.1.3,120.10361576697916,
0,8,1,2,mix,0,90,90,90,,,,,,,None,711.785269364209,None,710.7944318332666,None,711.2857013655339,None,1,[0.008643875040434068],[0.5177588784754334],711.785269364209,None,[2 3 3 2 3 2 3 3],space,0,2.751816853076889,0.002347367553738877,None,711.8019230633545,None,1,714.5578926673916,None,None,715.0574687480545,None,,,,,,,,,,,,,,,,,,,,,,,,,,,,,,,,,,,,,,,,,,,,,,01_JW,1,33,F,2022-11-22_17h07.03.843,dynamic target,2022.1.3,120.10361576697916,
1,1,2,2,mix,0,91,91,91,,,,,,,None,716.0899143245479,None,715.115761281264,None,715.5903351008928,None,1,[0.009137774108239682],[0.5178756182576763],716.0899143245479,None,[3 1 0 3 2 2 0 2],space,0,2.510967936799716,0.002379118206590647,None,716.1065728343965,None,1,718.6210812797472,None,None,719.1206480597135,None,,,,,,,,,,,,,,,,,,,,,,,,,,,,,,,,,,,,,,,,,,,,,,01_JW,1,33,F,2022-11-22_17h07.03.843,dynamic target,2022.1.3,120.10361576697916,
1,2,2,2,mix,0,92,92,92,,,,,,,None,720.1531138411665,None,719.1706187144118,720.1697479767754,719.6535333346583,None,2,"[0.009335654442111263, 0.8667441083271115]","[0.44148578949534567, 1.374374207436631]",720.1531138411665,None,[0 2 2 1 2 3 1 0],space,0,2.8860942178143887,0.0032931521855061874,None,721.0273664981178,None,1,723.9165945595414,None,None,724.4161388895478,None,,,,,,,,,,,,,,,,,,,,,,,,,,,,,,,,,,,,,,,,,,,,,,01_JW,1,33,F,2022-11-22_17h07.03.843,dynamic target,2022.1.3,120.10361576697916,
1,3,4,2,mix,0,93,93,93,,,,,,,None,725.4485844660376,None,724.4661265420691,725.4652253366366,724.9490113359425,None,2,"[0.008622066514362814, 0.8003429070631682]","[0.46647162998851854, 1.3080621645749488]",725.4485844660376,None,[0 1 2 3 3 3 3 0],space,0,2.6492936702888983,0.002923048599768663,None,726.2562662641903,None,1,728.9039584406382,None,None,729.4035354834374,None,,,,,,,,,,,,,,,,,,,,,,,,,,,,,,,,,,,,,,,,,,,,,,01_JW,1,33,F,2022-11-22_17h07.03.843,dynamic target,2022.1.3,120.10361576697916,
1,4,4,2,mix,0,94,94,94,,,,,,,None,730.4359775320809,None,729.4451672618015,None,729.9364088919792,None,1,[0.008623349367553601],[0.517603973770747],730.4359775320809,None,[2 2 2 3 3 0 1 2],space,0,2.404258478378324,0.0024737287385505624,None,730.4526440597729,None,1,732.8589132424568,None,None,733.3584841916996,None,,,,,,,,,,,,,,,,,,,,,,,,,,,,,,,,,,,,,,,,,,,,,,01_JW,1,33,F,2022-11-22_17h07.03.843,dynamic target,2022.1.3,120.10361576697916,
0,5,1,2,mix,0,95,95,95,,,,,,,None,734.3909198260699,None,733.4084833899178,None,733.8913656180812,None,1,[0.008637460770842154],[0.5170116156077711],734.3909198260699,None,[2 2 1 1 1 0 1 1],space,0,2.5126718885694572,0.0024621830489195418,None,734.4075914851783,None,1,736.9220970441093,None,None,737.4216744076253,None,,,,,,,,,,,,,,,,,,,,,,,,,,,,,,,,,,,,,,,,,,,,,,01_JW,1,33,F,2022-11-22_17h07.03.843,dynamic target,2022.1.3,120.10361576697916,
1,6,1,2,mix,0,96,96,96,,,,,,,None,738.4541636011782,None,737.4716373651936,None,737.9545571168601,None,1,[0.008552792358386796],[0.5175998044942389],738.4541636011782,None,[2 0 1 1 0 1 2 0],space,0,2.913834988794406,0.0024820672952046152,None,738.470781380387,None,1,741.3849455716809,None,None,741.8845341601733,None,,,,,,,,,,,,,,,,,,,,,,,,,,,,,,,,,,,,,,,,,,,,,,01_JW,1,33,F,2022-11-22_17h07.03.843,dynamic target,2022.1.3,120.10361576697916,
1,3,2,0,mix,0,97,97,97,,,,,,,None,742.9086629895755,None,741.91783187291,742.9169819816634,742.4090808794972,None,1,[0.16687566507971496],[0.66691447143603],742.9086629895755,None,[2 1 1 3 2 3 2 0],space,0,1.9093876522274513,0.0031706395602668636,None,743.0751698339263,None,0,744.9902044421397,None,None,745.4897827677956,None,,,,,,,,,,,,,,,,,,,,,,,,,,,,,,,,,,,,,,,,,,,,,,01_JW,1,33,F,2022-11-22_17h07.03.843,dynamic target,2022.1.3,120.10361576697916,
0,4,3,2,mix,0,98,98,98,,,,,,,None,746.5222094221826,None,745.5313991519033,746.5305463742334,746.0226468756373,None,2,"[0.8333465894975234, 1.8077036066824803]","[1.2001481055740442, 2.3153584007413883]",746.5222094221826,None,[1 1 2 2 1 1 0 2],space,0,6.614878847674845,0.0032158601898117922,None,748.3373481340532,None,1,754.9566783171249,None,None,755.4562653020508,None,,,,,,,,,,,,,,,,,,,,,,,,,,,,,,,,,,,,,,,,,,,,,,01_JW,1,33,F,2022-11-22_17h07.03.843,dynamic target,2022.1.3,120.10361576697916,
1,5,1,2,mix,0,99,99,99,,,,,,,None,756.4887051056976,None,755.4978771961651,None,755.989142238439,None,1,[0.008646761463751318],[0.5175452831645089],756.4887051056976,None,[0 0 1 1 3 3 2 3],space,0,3.0859982602778473,0.0027056047292717267,None,756.5053588048395,None,1,759.5943834696445,None,None,760.0939451181908,None,,,,,,,,,,,,,,,,,,,,,,,,,,,,,,,,,,,,,,,,,,,,,,01_JW,1,33,F,2022-11-22_17h07.03.843,dynamic target,2022.1.3,120.10361576697916,
0,6,1,2,mix,0,100,100,100,,,,,,,None,761.1263971089575,None,760.1355756137018,761.1347225153186,760.6268233374358,None,2,"[0.008780499068961944, 0.9752162091281207]","[0.1418359446906834, 1.4832638774423685]",761.1263971089575,None,[1 0 2 1 3 3 1 0],space,0,3.2898352145784884,0.002516704371373635,None,762.1088999328422,None,1,765.3977500652618,None,None,765.8973293530613,None,,,,,,,,,,,,,,,,,,,,,,,,,,,,,,,,,,,,,,,,,,,,,,01_JW,1,33,F,2022-11-22_17h07.03.843,dynamic target,2022.1.3,120.10361576697916,
0,7,4,2,mix,0,101,101,101,,,,,,,None,766.9297765331212,None,765.9556571647736,766.954745696501,766.4301953851864,None,1,[0.8249089333512529],[1.3249563989775197],766.9297765331212,None,[3 2 2 0 3 2 1 3],space,0,2.125161890322488,0.002809515961416764,None,767.7540780347663,None,1,769.8772532541188,None,None,770.3768280519249,None,,,,,,,,,,,,,,,,,,,,,,,,,,,,,,,,,,,,,,,,,,,,,,01_JW,1,33,F,2022-11-22_17h07.03.843,dynamic target,2022.1.3,120.10361576697916,
1,8,1,2,mix,0,102,102,102,,,,,,,None,771.4092781184081,None,770.4268362301227,None,770.9097021018933,None,1,[0.007676281875319546],[0.5162775019998662],771.4092781184081,None,[1 3 0 1 1 1 2 0],space,0,1.477250025007379,0.002945819269370986,None,771.4259424011034,None,1,772.899649652376,None,None,773.399279933648,None,,,,,,,,,,,,,,,,,,,,,,,,,,,,,,,,,,,,,,,,,,,,,,01_JW,1,33,F,2022-11-22_17h07.03.843,dynamic target,2022.1.3,120.10361576697916,
1,1,1,2,mix,0,103,103,103,,,,,,,None,774.4317190958682,None,773.457574391141,774.4566824864014,773.9321087629869,None,1,[1.1001858215058746],[1.6079377918104],774.4317190958682,None,[2 2 0 2 2 2 3 3],space,0,1.7475071026747173,0.0028524915978778154,None,775.539069660932,None,1,777.2875801062582,None,None,777.7871529797809,None,,,,,,,,,,,,,,,,,,,,,,,,,,,,,,,,,,,,,,,,,,,,,,01_JW,1,33,F,2022-11-22_17h07.03.843,dynamic target,2022.1.3,120.10361576697916,
1,2,4,2,mix,0,104,104,104,,,,,,,None,778.8195972734175,None,777.8454451922771,None,778.3200218983293,None,1,[0.009275680986320367],[0.517711092139507],778.8195972734175,None,[1 0 1 2 0 1 3 2],space,0,2.7699480801347818,0.0025853370971162803,None,778.8362602732595,None,1,781.6088880664356,None,None,782.108449394265,None,,,,,,,,,,,,,,,,,,,,,,,,,,,,,,,,,,,,,,,,,,,,,,01_JW,1,33,F,2022-11-22_17h07.03.843,dynamic target,2022.1.3,120.10361576697916,
0,3,3,2,mix,0,105,105,105,,,,,,,None,783.1409100443016,None,782.1584517996198,783.1575650263003,782.6413381970633,None,1,[0.7503272883077443],[1.2579913830631995],783.1409100443016,None,[3 0 3 2 3 2 1 0],space,0,2.4765678670155467,0.0031574902968714014,None,783.8986323485915,None,1,786.3714810493475,None,None,786.8710789385401,None,,,,,,,,,,,,,,,,,,,,,,,,,,,,,,,,,,,,,,,,,,,,,,01_JW,1,33,F,2022-11-22_17h07.03.843,dynamic target,2022.1.3,120.10361576697916,
1,6,1,0,mix,0,106,106,106,,,,,,,None,787.9034905193803,None,786.9210566489382,None,787.4039234828451,None,1,[0.008681719253218034],[0.5174718397356628],787.9034905193803,None,[2 3 2 3 1 3 1 3],space,0,4.56562235819365,0.0020523109633359127,None,787.9201583299255,None,1,792.491239064464,None,None,792.9908077687102,None,,,,,,,,,,,,,,,,,,,,,,,,,,,,,,,,,,,,,,,,,,,,,,01_JW,1,33,F,2022-11-22_17h07.03.843,dynamic target,2022.1.3,120.10361576697916,
0,7,3,2,mix,0,107,107,107,,,,,,,None,794.0232684187467,None,793.0491493711124,794.0482481656763,793.5236901572316,None,2,"[0.009638087441999232, 0.8167050774754898]","[0.44985705791259534, 1.3168821114231832]",794.0232684187467,None,[1 3 1 1 3 1 3 0],space,0,2.606139399955282,0.002436205242702272,None,794.8392390618974,None,1,797.4453497478862,None,None,797.9449200556988,None,,,,,,,,,,,,,,,,,,,,,,,,,,,,,,,,,,,,,,,,,,,,,,01_JW,1,33,F,2022-11-22_17h07.03.843,dynamic target,2022.1.3,120.10361576697916,
0,2,4,0,mix,0,108,108,108,,,,,,,None,798.9773649907656,None,798.0032241346016,799.0023360784253,798.4777941056673,None,1,[0.21670206276758108],[0.7257756941362459],798.9773649907656,None,[3 1 1 2 1 0 3 2],space,0,3.843411717298295,0.002615804896777263,None,799.2021586596202,None,1,803.0488799716222,None,None,803.5484512415784,None,,,,,,,,,,,,,,,,,,,,,,,,,,,,,,,,,,,,,,,,,,,,,,01_JW,1,33,F,2022-11-22_17h07.03.843,dynamic target,2022.1.3,120.10361576697916,
1,1,3,1,mix,0,109,109,109,,,,,,,None,804.5809000252048,None,803.6067931646903,None,804.0813336300998,None,1,[0.008610200107796118],[0.5169882035115734],804.5809000252048,None,[1 0 2 0 0 0 1 2],space,0,4.575665827727789,0.0031677531369496137,None,804.597550837927,None,1,809.1769762216463,None,None,809.6765725072688,None,,,,,,,,,,,,,,,,,,,,,,,,,,,,,,,,,,,,,,,,,,,,,,01_JW,1,33,F,2022-11-22_17h07.03.843,dynamic target,2022.1.3,120.10361576697916,
1,2,3,2,mix,0,110,110,110,,,,,,,None,810.7089937095188,None,809.7265489348138,None,810.2094247487039,None,1,[0.0086464407540916],[0.5170087291844538],810.7089937095188,None,[1 2 1 2 3 3 3 2],space,0,2.5598972983316344,0.002947422839497449,None,810.7256647272043,None,1,813.2901240071478,None,None,813.789697842814,None,,,,,,,,,,,,,,,,,,,,,,,,,,,,,,,,,,,,,,,,,,,,,,01_JW,1,33,F,2022-11-22_17h07.03.843,dynamic target,2022.1.3,120.10361576697916,
1,3,2,2,mix,0,111,111,111,,,,,,,None,814.8221604171304,None,813.8397079452952,814.8388006462992,814.3225629127955,None,2,"[0.008623670080851298, 0.7925595068190887]","[0.058579956807079725, 1.2999837077477423]",814.8221604171304,None,[1 0 1 1 3 2 0 0],space,0,2.047424422693439,0.0026648740968084894,None,815.6214555526094,None,1,817.6697033975761,None,None,818.1693077010383,None,,,,,,,,,,,,,,,,,,,,,,,,,,,,,,,,,,,,,,,,,,,,,,01_JW,1,33,F,2022-11-22_17h07.03.843,dynamic target,2022.1.3,120.10361576697916,
1,4,4,2,mix,0,112,112,112,,,,,,,None,819.2017256961553,None,818.2192940707064,None,818.7021618667568,None,1,[0.008663438577059424],[0.5174076970033639],819.2017256961553,None,[3 2 1 1 3 1 1 1],space,0,4.242163692091708,0.0028268344976822846,None,819.2183890167107,None,1,823.4647461904024,None,None,823.964330288905,None,,,,,,,,,,,,,,,,,,,,,,,,,,,,,,,,,,,,,,,,,,,,,,01_JW,1,33,F,2022-11-22_17h07.03.843,dynamic target,2022.1.3,120.10361576697916,
0,5,4,2,mix,0,113,113,113,,,,,,,None,824.9967752239681,None,824.0059611051256,None,824.4971828510534,None,1,[0.008631687924207654],[0.5174785747221904],824.9967752239681,None,[1 0 3 3 0 1 2 1],space,0,5.118467313011934,0.002611635620269226,None,825.0134302059669,None,1,830.1340432437464,None,None,830.6336324736691,None,,,,,,,,,,,,,,,,,,,,,,,,,,,,,,,,,,,,,,,,,,,,,,01_JW,1,33,F,2022-11-22_17h07.03.843,dynamic target,2022.1.3,120.10361576697916,
1,6,2,2,mix,0,114,114,114,,,,,,,None,831.6660665044692,None,830.6752485370635,831.674391590117,831.1664949779442,None,1,[0.23278970226965612],[0.7420095790766936],831.6660665044692,None,[3 3 1 0 3 2 2 3],space,0,2.703748928484856,0.0021741821692558005,None,831.9075350395724,None,1,834.6135451497503,None,None,835.1131298896795,None,,,,,,,,,,,,,,,,,,,,,,,,,,,,,,,,,,,,,,,,,,,,,,01_JW,1,33,F,2022-11-22_17h07.03.843,dynamic target,2022.1.3,120.10361576697916,
1,7,4,2,mix,0,115,115,115,,,,,,,None,836.1455713610372,None,835.1714637949517,None,835.6376759675768,None,1,[0.008671777133713476],[0.5164461973945436],836.1455713610372,None,[0 3 2 1 0 0 2 1],space,0,2.5066960306139663,0.0030753876017115545,None,836.1538931754039,None,1,838.660083270097,None,None,839.1596725000196,None,,,,,,,,,,,,,,,,,,,,,,,,,,,,,,,,,,,,,,,,,,,,,,01_JW,1,33,F,2022-11-22_17h07.03.843,dynamic target,2022.1.3,120.10361576697916,
0,6,3,1,mix,0,116,116,116,,,,,,,None,840.1921148693764,None,839.217941300416,840.2170878813195,839.6925420599946,None,1,[0.20012501419114415],[0.7004515007174632],840.1921148693764,None,[1 3 2 0 3 0 1 0],space,0,2.7796246532197983,0.0026757783562061377,None,840.3919493169742,None,1,843.1728928951015,None,None,843.6724439600945,None,,,,,,,,,,,,,,,,,,,,,,,,,,,,,,,,,,,,,,,,,,,,,,01_JW,1,33,F,2022-11-22_17h07.03.843,dynamic target,2022.1.3,120.10361576697916,
1,7,4,2,mix,0,117,117,117,,,,,,,None,844.7049145522542,None,843.7224277640526,844.7215647235462,844.2053404600156,None,4,"[0.23350329020104255, 0.8170152076017985, 0.8585274239048886, 1.2745302667099168]","[0.48306920423783595, 0.8507979035566677, 0.8666921527146769, 1.7745523959565617]",844.7049145522542,None,[0 2 3 3 3 3 0 0],space,0,6.856081831847405,0.0027043218724429607,None,845.978856309368,None,1,852.8396168626095,None,None,853.3392012818255,None,,,,,,,,,,,,,,,,,,,,,,,,,,,,,,,,,,,,,,,,,,,,,,01_JW,1,33,F,2022-11-22_17h07.03.843,dynamic target,2022.1.3,120.10361576697916,
0,8,3,2,mix,0,118,118,118,,,,,,,None,854.3633204898179,None,853.3725018809855,854.3716449340354,853.8637585847027,None,3,"[0.025213226490450324, 0.3666039564523089, 1.2666519352205796]","[0.33329495459838654, 0.6084243144614447, 1.7744109612249304]",854.3633204898179,None,[3 2 0 3 1 1 3 3],space,0,3.869766684478236,0.002708811869524652,None,855.6372308169921,None,1,859.5089302723536,None,None,860.00849352447,None,,,,,,,,,,,,,,,,,,,,,,,,,,,,,,,,,,,,,,,,,,,,,,01_JW,1,33,F,2022-11-22_17h07.03.843,dynamic target,2022.1.3,120.10361576697916,
1,1,1,2,mix,0,119,119,119,,,,,,,None,861.0409759830327,None,860.0668242226056,861.0659480328359,860.5413755922746,None,2,"[0.009543797619699035, 0.9589967563006212]","[0.19176048076042207, 1.4662015890717157]",861.0409759830327,None,[1 0 2 0 3 2 3 2],space,0,2.124558307183179,0.0031619802975910716,None,862.0068023371023,None,1,864.1299743493182,None,space,864.6378793000476,None,7.305469364939199,,,,,,,,,,,,,,,,,,,,,,,,,,,,,,,,,,,,,,,,,,,,,01_JW,1,33,F,2022-11-22_17h07.03.843,dynamic target,2022.1.3,120.10361576697916,
0,2,4,2,mix,0,120,120,120,,,,,,,None,872.9890630221598,None,872.0066374902744,None,872.4894825156516,None,1,[0.009467147050600033],[0.5174958932620939],872.9890630221598,None,[3 2 2 2 3 2 2 1],space,0,2.9958623225793417,0.0023470468368032016,None,873.0057176834453,None,1,876.003151653309,None,None,876.5027088118619,None,,,,,,,,,,,,,,,,,,,,,,,,,,,,,,,,,,,,,,,,,,,,,,01_JW,1,33,F,2022-11-22_17h07.03.843,dynamic target,2022.1.3,120.10361576697916,
0,3,2,2,mix,0,121,121,121,,,,,,,None,877.5351659340486,None,876.5527323843198,877.5518193124772,877.0356065946398,None,1,[0.8249198376142886],[1.3333590973306855],877.5351659340486,None,[1 1 3 2 2 1 2 1],space,0,4.210115415702603,0.00269854902944644,None,878.3677960491914,None,1,882.5808493524455,None,None,883.0804350545183,None,,,,,,,,,,,,,,,,,,,,,,,,,,,,,,,,,,,,,,,,,,,,,,01_JW,1,33,F,2022-11-22_17h07.03.843,dynamic target,2022.1.3,120.10361576697916,
1,4,3,2,mix,0,122,122,122,,,,,,,None,884.112880631008,None,883.1387336812841,None,883.6133084630565,None,1,[0.00908613920546486],[0.5174003205866029],884.112880631008,None,[3 3 0 2 2 0 3 3],space,0,2.512088189676433,0.002546530740801245,None,884.1295256708836,None,1,886.644077412584,None,None,887.1436185354538,None,,,,,,,,,,,,,,,,,,,,,,,,,,,,,,,,,,,,,,,,,,,,,,01_JW,1,33,F,2022-11-22_17h07.03.843,dynamic target,2022.1.3,120.10361576697916,
1,3,2,1,mix,0,123,123,123,,,,,,,None,888.1760727712135,None,887.1852551245211,None,887.6764813604386,None,1,[0.00867241856030887],[0.5175658088446653],888.1760727712135,None,[2 1 2 0 3 3 0 0],space,0,6.016414617191913,0.002406058152701007,None,888.1927206975124,None,1,894.2125751191597,None,None,894.7121515205359,None,,,,,,,,,,,,,,,,,,,,,,,,,,,,,,,,,,,,,,,,,,,,,,01_JW,1,33,F,2022-11-22_17h07.03.843,dynamic target,2022.1.3,120.10361576697916,
0,6,2,0,mix,0,124,124,124,,,,,,,None,895.7445906827525,None,894.7704895950847,None,895.2450310226341,None,1,[0.008703848499862943],[0.5171921774090151],895.7445906827525,None,[3 3 3 2 3 0 3 0],space,0,4.767928866822331,0.0028524915906018578,None,895.7612427783279,None,1,900.5321630918843,None,None,901.0317622639301,None,,,,,,,,,,,,,,,,,,,,,,,,,,,,,,,,,,,,,,,,,,,,,,01_JW,1,33,F,2022-11-22_17h07.03.843,dynamic target,2022.1.3,120.10361576697916,
1,7,1,2,mix,0,125,125,125,,,,,,,None,902.0641850697502,None,901.0733751201842,None,901.5646225232085,None,1,[0.009308393782703206],[0.5176604193766252],902.0641850697502,None,[0 0 1 1 3 3 1 2],space,0,4.063409754529857,0.0024589759086666163,None,902.0808320339056,None,1,906.1440135905614,None,None,906.6436143661737,None,,,,,,,,,,,,,,,,,,,,,,,,,,,,,,,,,,,,,,,,,,,,,,01_JW,1,33,F,2022-11-22_17h07.03.843,dynamic target,2022.1.3,120.10361576697916,
1,6,2,1,mix,0,126,126,126,,,,,,,None,907.6760506419705,None,906.693573154469,907.6927165282359,907.1764778325887,None,2,"[0.009439886391191976, 1.033755756008759]","[0.11678211290200124, 1.5414480735707912]",907.6760506419705,None,[1 0 2 1 0 0 0 2],space,0,3.731293743410788,0.0028040638280799612,None,908.716840290359,None,1,912.4469799355102,None,None,912.9465470361862,None,,,,,,,,,,,,,,,,,,,,,,,,,,,,,,,,,,,,,,,,,,,,,,01_JW,1,33,F,2022-11-22_17h07.03.843,dynamic target,2022.1.3,120.10361576697916,
1,7,1,2,mix,0,127,127,127,,,,,,,None,913.9789942162461,None,912.9881778524104,913.9873199433205,913.4794210861546,None,4,"[0.009186522587697254, 0.2999779349011078, 0.41677800776596996, 0.6588337696121016]","[0.29166439494656515, 0.409073823801009, 0.433202717344102, 1.1668984357529553]",913.9789942162461,None,[2 1 2 0 3 3 1 1],space,0,2.538938659490668,0.002282583387568593,None,914.6450902263787,None,1,917.1845857950757,None,None,917.6841615550253,None,,,,,,,,,,,,,,,,,,,,,,,,,,,,,,,,,,,,,,,,,,,,,,01_JW,1,33,F,2022-11-22_17h07.03.843,dynamic target,2022.1.3,120.10361576697916,
0,3,3,0,mix,0,128,128,128,,,,,,,None,918.7166058486619,None,917.7341164947502,None,918.21705035782,None,1,[0.008682360683451407],[0.5169901277913596],918.7166058486619,None,[3 1 0 1 2 2 1 2],space,0,3.507100450562575,0.0031703188469691668,None,918.7332614720872,None,1,922.2385952612603,None,None,922.7382130346992,None,,,,,,,,,,,,,,,,,,,,,,,,,,,,,,,,,,,,,,,,,,,,,,01_JW,1,33,F,2022-11-22_17h07.03.843,dynamic target,2022.1.3,120.10361576697916,
1,4,4,2,mix,0,129,129,129,,,,,,,None,923.7706178805565,None,922.7881403930514,None,923.2710412226115,None,1,[0.00940011789498385],[0.5175626017044124],923.7706178805565,None,[1 1 3 1 1 3 2 2],space,0,3.332376921789546,0.002545889321481809,None,923.787278314685,None,1,927.1177535546267,None,None,927.6173382945595,None,,,,,,,,,,,,,,,,,,,,,,,,,,,,,,,,,,,,,,,,,,,,,,01_JW,1,33,F,2022-11-22_17h07.03.843,dynamic target,2022.1.3,120.10361576697916,
1,8,1,0,mix,0,130,130,130,,,,,,,None,928.6497865009038,None,927.6589713557769,None,928.1502027231145,None,1,[0.008682681396749103],[0.5090049986429221],928.6497865009038,None,[1 3 2 1 1 1 2 2],space,0,3.5491697465222387,0.002823627361067338,None,928.6581128052603,None,1,932.2050646462558,None,None,932.7046535554615,None,,,,,,,,,,,,,,,,,,,,,,,,,,,,,,,,,,,,,,,,,,,,,,01_JW,1,33,F,2022-11-22_17h07.03.843,dynamic target,2022.1.3,120.10361576697916,
1,1,1,2,mix,0,131,131,131,,,,,,,None,933.7371007355214,None,932.7546594886662,933.7537438511172,933.2375186254467,None,1,[0.1575175606776611],[0.6576448840060038],933.7371007355214,None,[3 2 1 1 0 0 1 3],space,0,5.720173958779924,0.0028018188349960838,None,933.8952917949246,None,1,939.6153972712382,None,None,940.1149746347543,None,,,,,,,,,,,,,,,,,,,,,,,,,,,,,,,,,,,,,,,,,,,,,,01_JW,1,33,F,2022-11-22_17h07.03.843,dynamic target,2022.1.3,120.10361576697916,
1,2,1,2,mix,0,132,132,132,,,,,,,None,941.1474189283908,None,940.1566006402718,941.1557340719155,940.6478567025624,None,1,[0.39994406753612566],[0.9082133490046544],941.1474189283908,None,[0 0 3 2 0 1 2 2],space,0,2.507464781301678,0.003313036431791261,None,941.5554032878281,None,1,944.0616030039309,None,None,944.5611697838937,None,,,,,,,,,,,,,,,,,,,,,,,,,,,,,,,,,,,,,,,,,,,,,,01_JW,1,33,F,2022-11-22_17h07.03.843,dynamic target,2022.1.3,120.10361576697916,
0,3,2,2,mix,0,133,133,133,,,,,,,None,945.5936198503805,None,944.6028131079511,945.6019446153114,945.094033571022,None,2,"[0.008624632220744388, 0.8003451520598901]","[0.10017459652590333, 1.3081054609210696]",945.5936198503805,None,[1 3 3 1 0 2 3 1],space,0,2.3812392541585723,0.0025853370971162803,None,946.4012445614972,None,1,948.7825564472078,None,None,949.2821405457104,None,,,,,,,,,,,,,,,,,,,,,,,,,,,,,,,,,,,,,,,,,,,,,,01_JW,1,33,F,2022-11-22_17h07.03.843,dynamic target,2022.1.3,120.10361576697916,
1,4,2,2,mix,0,134,134,134,,,,,,,None,950.3145771422205,None,949.3321015789988,None,949.8150062571221,None,1,[0.008631687924207654],[0.5171973088290542],950.3145771422205,None,[1 2 1 0 0 1 3 2],space,0,2.0829351239444804,0.002926897162979003,None,950.3312439906258,None,1,952.41278448105,None,None,952.9123624859927,None,,,,,,,,,,,,,,,,,,,,,,,,,,,,,,,,,,,,,,,,,,,,,,01_JW,1,33,F,2022-11-22_17h07.03.843,dynamic target,2022.1.3,120.10361576697916,
1,5,2,2,mix,0,135,135,135,,,,,,,None,953.9447907439462,None,952.9707050505349,953.9697862058456,953.4369207510063,None,1,[0.5325158769301197],[1.0332426141212636],953.9447907439462,None,[1 3 3 0 0 2 2 1],space,0,2.135708559617342,0.001974377541046124,None,954.469376013054,None,1,956.6091943479987,None,None,957.1087765222179,None,,,,,,,,,,,,,,,,,,,,,,,,,,,,,,,,,,,,,,,,,,,,,,01_JW,1,33,F,2022-11-22_17h07.03.843,dynamic target,2022.1.3,120.10361576697916,
0,4,1,1,mix,0,136,136,136,,,,,,,None,958.1412169672913,None,957.1503983584589,958.1495417322258,957.6416470443328,None,3,"[0.009339823725895258, 0.3749152514137677, 1.0926458429421473]","[0.1750660509824229, 0.8169414434560167, 1.599557543409901]",958.1412169672913,None,[3 1 0 2 1 1 0 1],space,0,3.7336397639664938,0.0025102900945057627,None,959.2402876673405,None,1,962.9787472667158,None,None,963.4783352137816,None,,,,,,,,,,,,,,,,,,,,,,,,,,,,,,,,,,,,,,,,,,,,,,01_JW,1,33,F,2022-11-22_17h07.03.843,dynamic target,2022.1.3,120.10361576697916,
0,5,3,2,mix,0,137,137,137,,,,,,,None,964.5107814958461,None,963.5366020898982,None,964.0028681424192,None,1,[0.008904615264327731],[0.5163557561390917],964.5107814958461,None,[0 2 1 0 3 2 0 1],space,0,4.69478401905144,0.0031979002233128995,None,964.5190991409363,None,1,969.2150782894132,None,None,969.7146623879158,None,,,,,,,,,,,,,,,,,,,,,,,,,,,,,,,,,,,,,,,,,,,,,,01_JW,1,33,F,2022-11-22_17h07.03.843,dynamic target,2022.1.3,120.10361576697916,
0,6,3,2,mix,0,138,138,138,,,,,,,None,970.7471086058358,None,969.7646763389603,None,970.2475669056839,None,1,[0.008665362856845604],[0.5174618976088823],970.7471086058358,None,[1 3 0 3 3 3 1 0],space,0,1.4103517175426532,0.0027723131752281915,None,970.7637462692983,None,1,972.1792173688264,None,None,972.6787867144991,None,,,,,,,,,,,,,,,,,,,,,,,,,,,,,,,,,,,,,,,,,,,,,,01_JW,1,33,F,2022-11-22_17h07.03.843,dynamic target,2022.1.3,120.10361576697916,
0,7,1,2,mix,0,139,139,139,,,,,,,None,973.7112598723688,None,972.7371071497982,973.7362184521953,973.2116626887473,None,1,[0.3249275347443472],[0.8253043733166123],973.7112598723688,None,[3 2 0 1 0 3 2 3],space,0,1.9294309742290352,0.002697266168979695,None,974.0359584175458,None,1,975.9676438384777,None,None,976.467219277714,None,,,,,,,,,,,,,,,,,,,,,,,,,,,,,,,,,,,,,,,,,,,,,,01_JW,1,33,F,2022-11-22_17h07.03.843,dynamic target,2022.1.3,120.10361576697916,
1,8,2,2,mix,0,140,140,140,,,,,,,None,977.499647279095,None,976.5255409958663,None,976.991764714181,None,1,[0.008633612203993835],[0.5164333688480838],977.499647279095,None,[0 3 2 2 2 2 0 0],space,0,2.9220109425841656,0.003282889345427975,None,977.5079925055616,None,1,980.4304901210562,None,None,980.9300738988455,None,,,,,,,,,,,,,,,,,,,,,,,,,,,,,,,,,,,,,,,,,,,,,,01_JW,1,33,F,2022-11-22_17h07.03.843,dynamic target,2022.1.3,120.10361576697916,
1,1,2,2,mix,0,141,141,141,,,,,,,None,981.9625146646322,None,980.9883952962846,None,981.4629636637801,None,1,[0.008741371999349212],[0.5170815311903425],981.9625146646322,None,[2 2 2 1 3 0 3 2],space,0,2.9140508290984144,0.003127663927443791,None,981.9791539316611,None,1,984.8933319136377,None,None,985.3929086357272,None,,,,,,,,,,,,,,,,,,,,,,,,,,,,,,,,,,,,,,,,,,,,,,01_JW,1,33,F,2022-11-22_17h07.03.843,dynamic target,2022.1.3,120.10361576697916,
1,3,4,0,mix,0,142,142,142,,,,,,,None,986.4253894907233,None,985.434534961958,None,985.9257939106719,None,1,[0.008639705763926031],[0.5175658088410273],986.4253894907233,None,[1 2 2 2 2 3 3 0],space,0,4.402135674547026,0.0027033597325498704,None,986.4420143256357,None,1,990.8465721801404,None,None,991.346150185083,None,,,,,,,,,,,,,,,,,,,,,,,,,,,,,,,,,,,,,,,,,,,,,,01_JW,1,33,F,2022-11-22_17h07.03.843,dynamic target,2022.1.3,120.10361576697916,
0,2,4,1,mix,0,143,143,143,,,,,,,None,992.3785854987364,None,991.3961673432641,992.3952497814316,991.8790274421845,None,1,[1.0743847268458921],[1.5826572154510359],992.3785854987364,None,[1 1 3 3 0 2 1 2],space,0,3.430848849398899,0.0027626917653833516,None,993.4610047446367,None,1,996.8913832573344,None,None,997.3909779393867,None,,,,,,,,,,,,,,,,,,,,,,,,,,,,,,,,,,,,,,,,,,,,,,01_JW,1,33,F,2022-11-22_17h07.03.843,dynamic target,2022.1.3,120.10361576697916,
0,3,3,2,mix,0,144,144,144,,,,,,,None,998.4234328165767,None,997.440943783382,998.4400595757725,997.9238814950113,None,3,"[0.050176296310382895, 0.06673602634691633, 0.7505816142547701]","[0.05846257560187951, 0.17495187691383762, 1.2581254413853458]",998.4234328165767,None,[2 0 3 1 2 1 2 2],space,0,2.3191481240064604,0.002782576011668425,None,999.181113428087,None,1,1001.5041115493477,None,None,1002.0037062314001,None,,,,,,,,,,,,,,,,,,,,,,,,,,,,,,,,,,,,,,,,,,,,,,01_JW,1,33,F,2022-11-22_17h07.03.843,dynamic target,2022.1.3,120.10361576697916,
0,4,3,2,mix,0,145,145,145,,,,,,,None,1003.0361524493201,None,1002.0453258226444,None,1002.5365764328017,None,1,[0.008656382873596158],[0.51767004078647],1003.0361524493201,None,[3 3 3 1 0 0 3 3],space,0,2.3345523226671503,0.002570904980530031,None,1003.0528221841487,None,1,1005.392479777398,None,None,1005.8920484816441,None,,,,,,,,,,,,,,,,,,,,,,,,,,,,,,,,,,,,,,,,,,,,,,01_JW,1,33,F,2022-11-22_17h07.03.843,dynamic target,2022.1.3,120.10361576697916,
0,5,1,2,mix,0,146,146,146,,,,,,,None,1006.924493095994,None,1005.9503737276464,1006.9494699565039,1006.4249199658989,None,2,"[0.009459129210881656, 0.8088286702659389]","[0.05957416920864489, 1.3163561409928661]",1006.924493095994,None,[1 1 2 1 3 2 1 2],space,0,2.4798785943094117,0.0031302296374633443,None,1007.7404643805748,None,1,1010.2216718419149,None,None,1010.7212437532977,None,,,,,,,,,,,,,,,,,,,,,,,,,,,,,,,,,,,,,,,,,,,,,,01_JW,1,33,F,2022-11-22_17h07.03.843,dynamic target,2022.1.3,120.10361576697916,
0,6,3,2,mix,0,147,147,147,,,,,,,None,1011.753687726221,None,1010.7795856764133,None,1011.254116199696,None,1,[0.009419681427971227],[0.5174150734164868],1011.753687726221,None,[2 2 3 1 0 3 2 1],space,0,2.5769791502352746,0.0026924554658762645,None,1011.7703494432062,None,1,1014.3514714022822,None,None,1014.8510462000883,None,,,,,,,,,,,,,,,,,,,,,,,,,,,,,,,,,,,,,,,,,,,,,,01_JW,1,33,F,2022-11-22_17h07.03.843,dynamic target,2022.1.3,120.10361576697916,
0,7,2,2,mix,0,148,148,148,,,,,,,None,1015.8834815137416,None,1014.9010097990831,None,1015.3839141564931,None,1,[0.008919368090573698],[0.5177072435726586],1015.8834815137416,None,[0 0 2 0 3 3 3 1],space,0,3.0220421800950135,0.0022562848644156475,None,1015.9001499657134,None,1,1018.9225649653636,None,None,1019.4221330281831,None,,,,,,,,,,,,,,,,,,,,,,,,,,,,,,,,,,,,,,,,,,,,,,01_JW,1,33,F,2022-11-22_17h07.03.843,dynamic target,2022.1.3,120.10361576697916,
0,6,2,1,mix,0,149,149,149,,,,,,,None,1020.4545811703865,None,1019.4804351828025,None,1019.9550096438579,None,1,[0.008630084354081191],[0.5171928188356105],1020.4545811703865,None,[2 3 3 1 1 1 1 3],space,0,3.0593710071843816,0.00273799680871889,None,1020.4712390388049,None,1,1023.5352605445842,None,None,1024.0348603580564,None,,,,,,,,,,,,,,,,,,,,,,,,,,,,,,,,,,,,,,,,,,,,,,01_JW,1,33,F,2022-11-22_17h07.03.843,dynamic target,2022.1.3,120.10361576697916,
0,7,4,2,mix,0,150,150,150,,,,,,,None,1025.0673014445565,None,1024.0848640462646,1025.0839596336918,1024.5677344080214,None,1,[0.7830801726449863],[1.291087110323133],1025.0673014445565,None,[0 2 3 2 1 2 3 0],space,0,1.9286230964753486,0.0026783440698636696,None,1025.8583006793342,None,1,1027.7900107952191,None,None,1028.2895467866724,None,,,,,,,,,,,,,,,,,,,,,,,,,,,,,,,,,,,,,,,,,,,,,,01_JW,1,33,F,2022-11-22_17h07.03.843,dynamic target,2022.1.3,120.10361576697916,
1,4,4,0,mix,0,151,151,151,,,,,,,None,1029.3220016638625,None,1028.3395046128244,None,1028.8224269301973,None,1,[0.009531289786536945],[0.5175593945677974],1029.3220016638625,None,[1 1 2 3 2 3 0 2],space,0,5.647858155869471,0.0026716090833360795,None,1029.3386508730146,None,1,1034.9838228813787,None,None,1035.483419167001,None,,,,,,,,,,,,,,,,,,,,,,,,,,,,,,,,,,,,,,,,,,,,,,01_JW,1,33,F,2022-11-22_17h07.03.843,dynamic target,2022.1.3,120.10361576697916,
1,5,4,2,mix,0,152,152,152,,,,,,,None,1036.5158490285248,None,1035.5333420353636,None,1036.0162659563066,None,1,[0.008602182264439762],[0.5173275185807142],1036.5158490285248,None,[0 3 1 2 3 3 0 2],space,0,2.1979343895109196,0.002771671744994819,None,1036.5325046519501,None,1,1038.7306104528252,None,None,1039.2301708185182,None,,,,,,,,,,,,,,,,,,,,,,,,,,,,,,,,,,,,,,,,,,,,,,01_JW,1,33,F,2022-11-22_17h07.03.843,dynamic target,2022.1.3,120.10361576697916,
0,3,4,0,mix,0,153,153,153,,,,,,,None,1040.262631147838,None,1039.2885653386766,1040.2876096119144,1039.7630599420263,None,2,"[0.492252840398578, 1.2335982214499381]","[0.733937536519079, 1.7411991356093495]",1040.262631147838,None,[2 0 0 0 0 1 0 2],space,0,2.1546075752194156,0.002758522481599357,None,1041.5032382460013,None,0,1043.6680587778355,None,None,1044.1676297270783,None,,,,,,,,,,,,,,,,,,,,,,,,,,,,,,,,,,,,,,,,,,,,,,01_JW,1,33,F,2022-11-22_17h07.03.843,dynamic target,2022.1.3,120.10361576697916,
1,4,1,2,mix,0,154,154,154,,,,,,,None,1045.2000781899915,None,1044.2259697259105,1045.2250621062012,1044.7005018527598,None,1,[0.09182930591850891],[0.5920012084498012],1045.2000781899915,None,[3 2 1 0 3 0 0 0],space,0,5.389972608318203,0.002994567752466537,None,1045.2916711299295,None,1,1050.6787221869054,None,None,1051.1783120582545,None,,,,,,,,,,,,,,,,,,,,,,,,,,,,,,,,,,,,,,,,,,,,,,01_JW,1,33,F,2022-11-22_17h07.03.843,dynamic target,2022.1.3,120.10361576697916,
0,3,1,1,mix,0,155,155,155,,,,,,,None,1052.2107281290882,None,1051.219953778742,None,1051.711191881066,None,1,[0.00915252693448565],[0.5174612561859249],1052.2107281290882,None,[1 2 3 0 2 3 2 1],space,0,2.918291305348248,0.002611314906971529,None,1052.227405561047,None,1,1055.1499054215346,None,None,1055.6494808607672,None,,,,,,,,,,,,,,,,,,,,,,,,,,,,,,,,,,,,,,,,,,,,,,01_JW,1,33,F,2022-11-22_17h07.03.843,dynamic target,2022.1.3,120.10361576697916,
0,4,4,2,mix,0,156,156,156,,,,,,,None,1056.681926757974,None,1055.691100772725,1056.6902537679016,1056.1823606835787,None,2,"[0.00806177971753641, 0.7825724828944658]","[0.45758112612747937, 1.2829454728998826]",1056.681926757974,None,[3 1 2 0 1 2 2 2],space,0,8.624232141370157,0.0027723131752281915,None,1057.4645877578441,None,1,1066.0905429233535,None,None,1066.5901238147194,None,,,,,,,,,,,,,,,,,,,,,,,,,,,,,,,,,,,,,,,,,,,,,,01_JW,1,33,F,2022-11-22_17h07.03.843,dynamic target,2022.1.3,120.10361576697916,
1,5,4,2,mix,0,157,157,157,,,,,,,None,1067.622560731943,None,1066.6317459716738,1067.6308890247274,1067.122995298978,None,2,"[0.008595126560976496, 0.4664257679323782]","[0.45814205435090116, 0.9666534746429534]",1067.622560731943,None,[1 1 1 1 3 0 2 0],space,0,2.9273517874571553,0.0027931595614063554,None,1068.088834481594,None,1,1071.0196568620195,None,None,1071.5192290941154,None,,,,,,,,,,,,,,,,,,,,,,,,,,,,,,,,,,,,,,,,,,,,,,01_JW,1,33,F,2022-11-22_17h07.03.843,dynamic target,2022.1.3,120.10361576697916,
0,6,1,2,mix,0,158,158,158,,,,,,,None,1072.551673708469,None,1071.5608608724797,1072.5600212440731,1072.0520887119674,None,2,"[0.008217325848818291, 0.7828123767249053]","[0.19126658169625443, 1.2830083327826287]",1072.551673708469,None,[0 2 0 1 1 1 1 2],space,0,3.6975764730450464,0.002523439357901225,None,1073.3343696661286,None,1,1077.0311855565924,None,None,1077.530766127245,None,,,,,,,,,,,,,,,,,,,,,,,,,,,,,,,,,,,,,,,,,,,,,,01_JW,1,33,F,2022-11-22_17h07.03.843,dynamic target,2022.1.3,120.10361576697916,
0,7,4,2,mix,0,159,159,159,,,,,,,None,1078.5631979130485,None,1077.5890846382608,1078.588191450668,1078.063628310807,None,2,"[0.008559848061850062, 0.8834029388926865]","[0.5167694767842477, 1.3910622229450382]",1078.5631979130485,None,[2 1 1 0 1 2 2 3],space,0,3.0499647957331035,0.0031404924775415566,None,1079.454103948432,None,1,1082.501497732872,None,None,1083.0010824728047,None,,,,,,,,,,,,,,,,,,,,,,,,,,,,,,,,,,,,,,,,,,,,,,01_JW,1,33,F,2022-11-22_17h07.03.843,dynamic target,2022.1.3,120.10361576697916,
1,8,4,2,mix,0,160,160,160,,,,,,,None,1084.0335274720123,None,1083.05101464186,None,1083.525618287862,None,1,[0.008949515176936984],[0.5166642826952739],1084.0335274720123,None,[3 0 3 1 0 2 1 0],space,0,2.093513864601846,0.0026174084669037256,None,1084.0418550592258,None,1,1086.1400498902185,None,None,1086.6396272537345,None,,,,,,,,,,,,,,,,,,,,,,,,,,,,,,,,,,,,,,,,,,,,,,01_JW,1,33,F,2022-11-22_17h07.03.843,dynamic target,2022.1.3,120.10361576697916,
1,1,3,2,mix,0,161,161,161,,,,,,,None,1087.6720798859278,None,1086.6812846891917,1087.6804113858489,1087.1725186222393,None,2,"[0.00966598953527864, 1.0086400264808617]","[0.01691860864229966, 1.51599623610673]",1087.6720798859278,None,[0 0 1 2 3 2 2 0],space,0,2.488022476729384,0.003262363672547508,None,1088.6878804866865,None,1,1091.1774069401145,None,None,1091.6770118850068,None,,,,,,,,,,,,,,,,,,,,,,,,,,,,,,,,,,,,,,,,,,,,,,01_JW,1,33,F,2022-11-22_17h07.03.843,dynamic target,2022.1.3,120.10361576697916,
0,5,3,0,mix,0,162,162,162,,,,,,,None,1092.7094385393902,None,1091.7186330798177,None,1092.2098464871888,None,1,[0.009143546951236203],[0.517585051664355],1092.7094385393902,None,[1 1 2 2 3 2 3 3],space,0,3.4570758518239018,0.0026199741732853,None,1092.726090955679,None,1,1096.181467816703,None,None,1096.6810374830889,None,,,,,,,,,,,,,,,,,,,,,,,,,,,,,,,,,,,,,,,,,,,,,,01_JW,1,33,F,2022-11-22_17h07.03.843,dynamic target,2022.1.3,120.10361576697916,
1,6,2,2,mix,0,163,163,163,,,,,,,None,1097.7134891531423,None,1096.7226638093198,1097.7218164837832,1097.2139080052038,None,2,"[0.00809449251028127, 0.5075980277397321]","[0.1829584938750486, 1.0078305451534106]",1097.7134891531423,None,[1 2 1 2 1 3 2 2],space,0,2.5852102667740837,0.002544606464653043,None,1098.2213678053486,None,1,1100.8108183779186,None,None,1101.310412097831,None,,,,,,,,,,,,,,,,,,,,,,,,,,,,,,,,,,,,,,,,,,,,,,01_JW,1,33,F,2022-11-22_17h07.03.843,dynamic target,2022.1.3,120.10361576697916,
0,7,1,2,mix,0,164,164,164,,,,,,,None,1102.3428640885977,None,1101.3603708861228,None,1101.8433066734724,None,1,[0.008640347190521425],[0.5178153240849497],1102.3428640885977,None,[2 3 2 1 0 2 1 0],space,0,3.950376463810244,0.0019496825880196411,None,1102.3595078456165,None,1,1106.3144661752885,None,None,1106.8140425766646,None,,,,,,,,,,,,,,,,,,,,,,,,,,,,,,,,,,,,,,,,,,,,,,01_JW,1,33,F,2022-11-22_17h07.03.843,dynamic target,2022.1.3,120.10361576697916,
1,8,4,2,mix,0,165,165,165,,,,,,,None,1107.846481418168,None,1106.872372954087,1107.8714598822444,1107.3469111744962,None,2,"[0.009339823722257279, 0.8008801024734566]","[0.2084622869588202, 1.3084576045366703]",1107.846481418168,None,[2 3 0 0 0 0 0 2],space,0,1.8808377206332807,0.002626388453791151,None,1108.654130182811,None,1,1110.5358314149307,None,None,1111.0354216069932,None,,,,,,,,,,,,,,,,,,,,,,,,,,,,,,,,,,,,,,,,,,,,,,01_JW,1,33,F,2022-11-22_17h07.03.843,dynamic target,2022.1.3,120.10361576697916,
0,1,2,2,mix,0,166,166,166,,,,,,,None,1112.0678549963632,None,1111.0937157437693,None,1111.5682934119613,None,1,[0.008734957726119319],[0.5172085338053876],1112.0678549963632,None,[1 1 0 1 3 3 0 2],space,0,2.466495533251873,0.0029002779301663395,None,1112.0845074126519,None,1,1114.54907239983,None,None,1115.048660667609,None,,,,,,,,,,,,,,,,,,,,,,,,,,,,,,,,,,,,,,,,,,,,,,01_JW,1,33,F,2022-11-22_17h07.03.843,dynamic target,2022.1.3,120.10361576697916,
1,2,1,2,mix,0,167,167,167,,,,,,,None,1116.072781479168,None,1115.081968001752,1116.081101754109,1115.57319744481,None,1,[0.025195907950546825],[0.5254829466939555],1116.072781479168,None,[2 3 1 2 1 3 1 3],space,0,2.388221190925833,0.0025157422278425656,None,1116.0977560946812,None,1,1118.487383765343,None,None,1118.986959846006,None,,,,,,,,,,,,,,,,,,,,,,,,,,,,,,,,,,,,,,,,,,,,,,01_JW,1,33,F,2022-11-22_17h07.03.843,dynamic target,2022.1.3,120.10361576697916,
0,3,3,2,mix,0,168,168,168,,,,,,,None,1120.019444228852,None,1119.0369673827772,None,1119.5198406309573,None,1,[0.008695509946846869],[0.5174728018791939],1120.019444228852,None,[2 1 2 0 0 0 2 3],space,0,3.233594222623651,0.0028082331045879982,None,1120.0360446895247,None,1,1123.2749539294782,None,None,1123.7745085223246,None,,,,,,,,,,,,,,,,,,,,,,,,,,,,,,,,,,,,,,,,,,,,,,01_JW,1,33,F,2022-11-22_17h07.03.843,dynamic target,2022.1.3,120.10361576697916,
1,4,3,2,mix,0,169,169,169,,,,,,,None,1124.8069627580844,None,1123.8161605056484,1124.8153054829818,1124.3073989286859,None,1,[0.7583662973556784],[1.2586158125959628],1124.8069627580844,None,[3 0 0 0 0 1 1 3],space,0,2.7286395170158357,0.0024480716456309892,None,1125.5646545945747,None,1,1128.2956640152188,None,None,1128.7952247016215,None,,,,,,,,,,,,,,,,,,,,,,,,,,,,,,,,,,,,,,,,,,,,,,01_JW,1,33,F,2022-11-22_17h07.03.843,dynamic target,2022.1.3,120.10361576697916,
1,3,1,1,mix,0,170,170,170,,,,,,,None,1129.8276687386892,None,1128.8535756047204,None,1129.3197823252121,None,1,[0.008632970773760462],[0.516569672159676],1129.8276687386892,None,[2 1 1 1 2 1 0 0],space,0,4.328957793270092,0.002688606906303903,None,1129.8359953637628,None,1,1134.1656293717278,None,None,1134.6652147530835,None,,,,,,,,,,,,,,,,,,,,,,,,,,,,,,,,,,,,,,,,,,,,,,01_JW,1,33,F,2022-11-22_17h07.03.843,dynamic target,2022.1.3,120.10361576697916,
0,4,1,2,mix,0,171,171,171,,,,,,,None,1135.6976591108646,None,1134.7068330614748,None,1135.1980660323788,None,1,[0.0087060934965848],[0.5088994838442886],1135.6976591108646,None,[0 0 2 2 1 0 3 2],space,0,1.851765025749046,0.0028367766244628,None,1135.7059860566515,None,0,1137.562723577521,None,None,1138.062300941037,None,,,,,,,,,,,,,,,,,,,,,,,,,,,,,,,,,,,,,,,,,,,,,,01_JW,1,33,F,2022-11-22_17h07.03.843,dynamic target,2022.1.3,120.10361576697916,
1,5,4,2,mix,0,172,172,172,,,,,,,None,1139.094747158957,None,1138.1123123263715,None,1138.5951743495752,None,1,[0.008743616996071069],[0.516915080788749],1139.094747158957,None,[0 1 3 2 0 3 3 3],space,0,2.926388042855251,0.003096875414485112,None,1139.1113992545324,None,1,1142.0422694212975,None,None,1142.541793867054,None,,,,,,,,,,,,,,,,,,,,,,,,,,,,,,,,,,,,,,,,,,,,,,01_JW,1,33,F,2022-11-22_17h07.03.843,dynamic target,2022.1.3,120.10361576697916,
0,6,1,2,mix,0,173,173,173,,,,,,,None,1143.5742541963773,None,1142.6000953802468,None,1143.074665992739,None,1,[0.008752596979320515],[0.5172050059554749],1143.5742541963773,None,[0 3 3 2 1 3 3 0],space,0,4.798228932952043,0.002316579040780198,None,1143.5909245726325,None,1,1148.3868047488686,None,None,1148.886378905248,None,,,,,,,,,,,,,,,,,,,,,,,,,,,,,,,,,,,,,,,,,,,,,,01_JW,1,33,F,2022-11-22_17h07.03.843,dynamic target,2022.1.3,120.10361576697916,
0,7,3,2,mix,0,174,174,174,,,,,,,None,1149.9104993960937,None,1148.9196811079746,1149.918817746755,1149.4109294731352,None,2,"[0.009184598304273095, 0.751082569018763]","[0.31658064056682633, 1.2582389740236977]",1149.9104993960937,None,[2 0 2 2 3 0 1 1],space,0,3.752787011955661,0.0028524915906018578,None,1150.6681710276243,None,1,1154.4233128696615,None,None,1154.9228677832175,None,,,,,,,,,,,,,,,,,,,,,,,,,,,,,,,,,,,,,,,,,,,,,,01_JW,1,33,F,2022-11-22_17h07.03.843,dynamic target,2022.1.3,120.10361576697916,
1,8,3,2,mix,0,175,175,175,,,,,,,None,1155.9553598631937,None,1154.98121195133,1155.9803405722669,1155.4557482474593,None,2,"[0.008649327173770871, 0.45011587385306484]","[0.10018550079257693, 0.958297600485821]",1155.9553598631937,None,[3 0 0 3 0 0 1 0],space,0,2.343045141566108,0.0030850090079184156,None,1156.4133011507838,None,1,1158.7529257105234,None,None,1159.2525046776059,None,,,,,,,,,,,,,,,,,,,,,,,,,,,,,,,,,,,,,,,,,,,,,,01_JW,1,33,F,2022-11-22_17h07.03.843,dynamic target,2022.1.3,120.10361576697916,
0,1,1,2,mix,0,176,176,176,,,,,,,None,1160.2766133020486,None,1159.2941730173297,1160.2933231260831,1159.7770517176432,None,4,"[0.008985114396637073, 0.30825042350261356, 0.38325252417780575, 1.3751381474176014]","[0.25828066680332995, 0.37484661868438707, 0.8423897530701652, 1.8827243087507668]",1160.2766133020486,None,[0 0 1 0 2 0 2 3],space,0,2.9209875452361302,0.0027614089085545857,None,1161.6587750790059,None,1,1164.5812739773537,None,None,1165.0808583965695,None,,,,,,,,,,,,,,,,,,,,,,,,,,,,,,,,,,,,,,,,,,,,,,01_JW,1,33,F,2022-11-22_17h07.03.843,dynamic target,2022.1.3,120.10361576697916,
1,2,3,2,mix,0,177,177,177,,,,,,,None,1166.1049683038655,None,1165.1141519400262,None,1165.6054073608902,None,1,[0.008627518644061638],[0.5178592618576658],1166.1049683038655,None,[1 3 3 2 0 3 3 0],space,0,2.682002616857062,0.002338387570489431,None,1166.1216223237243,None,1,1168.802668722652,None,None,1169.3022390304682,None,,,,,,,,,,,,,,,,,,,,,,,,,,,,,,,,,,,,,,,,,,,,,,01_JW,1,33,F,2022-11-22_17h07.03.843,dynamic target,2022.1.3,120.10361576697916,
0,3,4,2,mix,0,178,178,178,,,,,,,None,1170.3347125090513,None,1169.3522295694129,None,1169.8351246261263,None,1,[0.008055686153966235],[0.5167797396170499],1170.3347125090513,None,[3 1 1 2 3 1 2 1],space,0,1.9245942912566534,0.0028569815840455703,None,1170.3513460032336,None,1,1172.2746903028346,None,None,1172.7742683077772,None,,,,,,,,,,,,,,,,,,,,,,,,,,,,,,,,,,,,,,,,,,,,,,01_JW,1,33,F,2022-11-22_17h07.03.843,dynamic target,2022.1.3,120.10361576697916,
0,4,1,2,mix,0,179,179,179,,,,,,,None,1173.8067132428441,None,1172.8242822588218,None,1173.3071423577458,None,1,[0.009106664878345327],[0.5173422714069602],1173.8067132428441,None,[2 1 1 0 2 0 1 3],space,0,2.356401904100494,0.00281079881824553,None,1173.8233813741026,None,1,1176.1796926664938,None,space,1176.6875921650899,None,28.247601713210315,,,,,,,,,,,,,,,,,,,,,,,,,,,,,,,,,,,,,,,,,,,,,01_JW,1,33,F,2022-11-22_17h07.03.843,dynamic target,2022.1.3,120.10361576697916,
1,5,3,2,mix,0,180,180,180,,,,,,,None,1205.9791934435848,None,1204.9883689977614,None,1205.4796269843355,None,1,[0.008743937709368765],[0.5088911452876346],1205.9791934435848,None,[3 2 2 0 0 2 2 0],space,0,3.214212532937381,0.0029365185800998006,None,1205.9875178236616,None,1,1209.201435129562,None,None,1209.7010140966481,None,,,,,,,,,,,,,,,,,,,,,,,,,,,,,,,,,,,,,,,,,,,,,,01_JW,1,33,F,2022-11-22_17h07.03.843,dynamic target,2022.1.3,120.10361576697916,
0,4,4,1,mix,0,181,181,181,,,,,,,None,1210.733461276708,None,1209.7593338905172,None,1210.2338823737664,None,1,[0.008706734923180193],[0.5171960259722255],1210.733461276708,None,[3 1 1 3 1 1 3 1],space,0,4.020003403245937,0.002839663044142071,None,1210.7501181829903,None,1,1214.7717131177633,None,None,1215.2712417327998,None,,,,,,,,,,,,,,,,,,,,,,,,,,,,,,,,,,,,,,,,,,,,,,01_JW,1,33,F,2022-11-22_17h07.03.843,dynamic target,2022.1.3,120.10361576697916,
0,5,3,2,mix,0,182,182,182,,,,,,,None,1216.2953602993657,None,1215.321201162522,1216.3203461398552,1215.7957910178338,None,2,"[0.008767670522502158, 0.8090557355462806]","[0.09187324369122507, 1.3165864134134608]",1216.2953602993657,None,[3 0 1 1 2 0 0 3],space,0,3.78625701207784,0.0028159302346466575,None,1217.1113341496566,None,1,1220.8997635057312,None,None,1221.3993408692472,None,,,,,,,,,,,,,,,,,,,,,,,,,,,,,,,,,,,,,,,,,,,,,,01_JW,1,33,F,2022-11-22_17h07.03.843,dynamic target,2022.1.3,120.10361576697916,
1,6,4,2,mix,0,183,183,183,,,,,,,None,1222.4317858043141,None,1221.4493445574553,None,1221.9322184470657,None,1,[0.008645799323858228],[0.51755875314484],1222.4317858043141,None,[0 0 0 1 2 1 0 0],space,0,2.5283316960303637,0.0026000899306382053,None,1222.4484382206028,None,1,1224.979606458659,None,None,1225.4791969714347,None,,,,,,,,,,,,,,,,,,,,,,,,,,,,,,,,,,,,,,,,,,,,,,01_JW,1,33,F,2022-11-22_17h07.03.843,dynamic target,2022.1.3,120.10361576697916,
1,5,3,1,mix,0,184,184,184,,,,,,,None,1226.5116217015384,None,1225.5375090681773,1226.5365969584782,1226.0037292586421,None,1,[0.21685151533893077],[0.7252000130829401],1226.5116217015384,None,[2 0 2 3 0 1 3 3],space,0,3.03304169709736,0.0031010446946311276,None,1226.7281088861419,None,1,1229.7588441607331,None,None,1230.2584253728123,None,,,,,,,,,,,,,,,,,,,,,,,,,,,,,,,,,,,,,,,,,,,,,,01_JW,1,33,F,2022-11-22_17h07.03.843,dynamic target,2022.1.3,120.10361576697916,
1,6,4,2,mix,0,185,185,185,,,,,,,None,1231.2908690250224,None,1230.308423608887,None,1230.7913077613339,None,1,[0.017506797525129514],[0.5252469014230883],1231.2908690250224,None,[1 0 0 0 0 3 3 3],space,0,2.812953218610346,0.002475653018336743,None,1231.3158449233888,None,1,1234.1301157840498,None,None,1234.629694430419,None,,,,,,,,,,,,,,,,,,,,,,,,,,,,,,,,,,,,,,,,,,,,,,01_JW,1,33,F,2022-11-22_17h07.03.843,dynamic target,2022.1.3,120.10361576697916,
0,7,4,2,mix,0,186,186,186,,,,,,,None,1235.6621329512127,None,1234.688028014978,1235.6871046803026,1235.1625595004043,None,2,"[0.05900201600525179, 0.2080123256673687]","[0.06641178481368115, 0.7080257956404239]",1235.6621329512127,None,[0 1 1 3 0 3 2 1],space,0,2.6578323512476345,0.002758522481599357,None,1235.870282221622,None,1,1238.5263414972069,None,None,1239.025915974296,None,,,,,,,,,,,,,,,,,,,,,,,,,,,,,,,,,,,,,,,,,,,,,,01_JW,1,33,F,2022-11-22_17h07.03.843,dynamic target,2022.1.3,120.10361576697916,
0,6,2,1,mix,0,187,187,187,,,,,,,None,1240.0583644372127,None,1239.0675496769436,None,1239.5587903449778,None,1,[0.008605389401054708],[0.5176754929234448],1240.0583644372127,None,[0 2 0 3 0 2 2 0],space,0,2.821238215048652,0.0025664149907242972,None,1240.0750245506315,None,1,1242.897593877704,None,None,1243.3971859940461,None,,,,,,,,,,,,,,,,,,,,,,,,,,,,,,,,,,,,,,,,,,,,,,01_JW,1,33,F,2022-11-22_17h07.03.843,dynamic target,2022.1.3,120.10361576697916,
0,7,4,2,mix,0,188,188,188,,,,,,,None,1244.4296347776763,None,1243.4471903236808,1244.4462727618484,1243.9300590818711,None,1,[0.11639084221314988],[0.616480962758942],1244.4296347776763,None,[2 1 0 2 0 0 2 2],space,0,2.9263017708763073,0.0030320912519528065,None,1244.546215161674,None,1,1247.4770166957096,None,None,1247.976590852089,None,,,,,,,,,,,,,,,,,,,,,,,,,,,,,,,,,,,,,,,,,,,,,,01_JW,1,33,F,2022-11-22_17h07.03.843,dynamic target,2022.1.3,120.10361576697916,
1,8,4,2,mix,0,189,189,189,,,,,,,None,1249.009038032149,None,1248.0349504144579,1249.0340318904819,1248.509455280644,None,1,[0.7753285230573965],[1.283286391542788],1249.009038032149,None,[1 0 3 3 2 2 0 1],space,0,3.3757008496577328,0.0027360725252947304,None,1249.7917182748424,None,1,1253.1721568572102,None,None,1253.6717059979233,None,,,,,,,,,,,,,,,,,,,,,,,,,,,,,,,,,,,,,,,,,,,,,,01_JW,1,33,F,2022-11-22_17h07.03.843,dynamic target,2022.1.3,120.10361576697916,
0,1,1,2,mix,0,190,190,190,,,,,,,None,1254.7041730622295,None,1253.713345473414,None,1254.2046015357046,None,1,[0.009392420764925191],[0.5179939616027696],1254.7041730622295,None,[1 3 1 0 2 2 1 3],space,0,3.4385652204873622,0.00236917608344811,None,1254.720826761375,None,1,1258.1595409432703,None,None,1258.659106761093,None,,,,,,,,,,,,,,,,,,,,,,,,,,,,,,,,,,,,,,,,,,,,,,01_JW,1,33,F,2022-11-22_17h07.03.843,dynamic target,2022.1.3,120.10361576697916,
0,2,1,2,mix,0,191,191,191,,,,,,,None,1259.691561317566,None,1258.7091168635743,None,1259.1919894703278,None,1,[0.008687171390192816],[0.5170314998576941],1259.691561317566,None,[2 0 2 2 2 2 1 0],space,0,3.715576528207748,0.0029371600030572154,None,1259.7082047538715,None,1,1263.4217051319938,None,None,1263.921289871923,None,,,,,,,,,,,,,,,,,,,,,,,,,,,,,,,,,,,,,,,,,,,,,,01_JW,1,33,F,2022-11-22_17h07.03.843,dynamic target,2022.1.3,120.10361576697916,
0,3,2,2,mix,0,192,192,192,,,,,,,None,1264.9537425041162,None,1263.9796212114888,1264.9787142332061,1264.4541636011782,None,1,[0.09183732375822728],[0.5918495108780917],1264.9537425041162,None,[3 3 0 0 2 1 1 0],space,0,1.5459786454302957,0.0031170803813438397,None,1265.0453178048047,None,1,1266.5940011789426,None,None,1267.0935679589052,None,,,,,,,,,,,,,,,,,,,,,,,,,,,,,,,,,,,,,,,,,,,,,,01_JW,1,33,F,2022-11-22_17h07.03.843,dynamic target,2022.1.3,120.10361576697916,
1,4,4,2,mix,0,193,193,193,,,,,,,None,1268.1260318160785,None,1267.1435912106463,1268.1426758938105,1267.6264509888533,None,2,"[0.00870416921316064, 0.8919425819876778]","[0.10035804474682664, 1.3995245740443352]",1268.1260318160785,None,[1 3 1 0 0 0 3 0],space,0,1.6299498248190503,0.0031690359974163584,None,1269.0252436942865,None,1,1270.6572481611875,None,None,1271.1567671548141,None,,,,,,,,,,,,,,,,,,,,,,,,,,,,,,,,,,,,,,,,,,,,,,01_JW,1,33,F,2022-11-22_17h07.03.843,dynamic target,2022.1.3,120.10361576697916,
0,7,3,0,mix,0,194,194,194,,,,,,,None,1272.189207920601,None,1271.1983873874851,None,1271.689631262656,None,1,[0.008637140053906478],[0.5177059607194678],1272.189207920601,None,[0 3 1 2 3 1 0 1],space,0,3.1685531680668646,0.0024066995829343796,None,1272.2058866354091,None,1,1275.3781525352715,None,None,1275.877720598091,None,,,,,,,,,,,,,,,,,,,,,,,,,,,,,,,,,,,,,,,,,,,,,,01_JW,1,33,F,2022-11-22_17h07.03.843,dynamic target,2022.1.3,120.10361576697916,
1,8,3,2,mix,0,195,195,195,,,,,,,None,1276.9101722681444,None,1275.9360580312132,None,1276.4105933652027,None,1,[0.007801360210578423],[0.5165841042762622],1276.9101722681444,None,[0 1 3 2 3 3 2 2],space,0,2.2723338691866957,0.002889694380428409,None,1276.92680961089,None,1,1279.1998812717939,None,None,1279.69944644819,None,,,,,,,,,,,,,,,,,,,,,,,,,,,,,,,,,,,,,,,,,,,,,,01_JW,1,33,F,2022-11-22_17h07.03.843,dynamic target,2022.1.3,120.10361576697916,
0,1,1,2,mix,0,196,196,196,,,,,,,None,1280.7319019668066,None,1279.7577684870557,None,1280.2323153667385,None,1,[0.008615972950792639],[0.5174452204992122],1280.7319019668066,None,[2 1 2 2 1 2 3 2],space,0,2.081746879768616,0.0026825133427337278,None,1280.748557590232,None,1,1282.830106098496,None,None,1283.3297027048352,None,,,,,,,,,,,,,,,,,,,,,,,,,,,,,,,,,,,,,,,,,,,,,,01_JW,1,33,F,2022-11-22_17h07.03.843,dynamic target,2022.1.3,120.10361576697916,
1,8,1,1,mix,0,197,197,197,,,,,,,None,1284.3621242277986,None,1283.3796919609267,None,1283.8625485319972,None,1,[0.008598012987931725],[0.51730891718762],1284.3621242277986,None,[1 1 2 0 0 0 1 1],space,0,2.675083860685845,0.0029031643534835894,None,1284.3787760026607,None,0,1287.0598137423221,None,None,1287.5593988029682,None,,,,,,,,,,,,,,,,,,,,,,,,,,,,,,,,,,,,,,,,,,,,,,01_JW,1,33,F,2022-11-22_17h07.03.843,dynamic target,2022.1.3,120.10361576697916,
0,1,2,2,mix,0,198,198,198,,,,,,,None,1288.591850473018,None,1287.6177169932707,None,1288.0922734943597,None,1,[0.009569454716256587],[0.5174865925655467],1288.591850473018,None,[2 1 2 3 3 3 0 3],space,0,2.6209788218220638,0.002724526832025731,None,1288.6084983993169,None,1,1291.239577286542,None,None,1291.739171968598,None,,,,,,,,,,,,,,,,,,,,,,,,,,,,,,,,,,,,,,,,,,,,,,01_JW,1,33,F,2022-11-22_17h07.03.843,dynamic target,2022.1.3,120.10361576697916,
0,2,3,2,mix,0,199,199,199,,,,,,,None,1292.771601573549,None,1291.7807681477425,None,1292.2720197200397,None,1,[0.00865510002040537],[0.5088786374544725],1292.771601573549,None,[3 0 3 3 2 0 0 0],space,0,2.5621862318475905,0.0029288214500411414,None,1292.7799140872194,None,1,1295.3443990242595,None,None,1295.8439619556589,None,,,,,,,,,,,,,,,,,,,,,,,,,,,,,,,,,,,,,,,,,,,,,,01_JW,1,33,F,2022-11-22_17h07.03.843,dynamic target,2022.1.3,120.10361576697916,
1,3,3,2,mix,0,200,200,200,,,,,,,None,1296.8764145878522,None,1295.8855930925965,None,1296.3768417784704,None,1,[0.008643875040434068],[0.5170776826234942],1296.8764145878522,None,[2 3 1 0 0 2 0 1],space,0,4.080628551175323,0.0030243941218941472,None,1296.8930666834276,None,1,1300.9729170127684,None,None,1301.4724908484345,None,,,,,,,,,,,,,,,,,,,,,,,,,,,,,,,,,,,,,,,,,,,,,,01_JW,1,33,F,2022-11-22_17h07.03.843,dynamic target,2022.1.3,120.10361576697916,
1,4,2,2,mix,0,201,201,201,,,,,,,None,1302.5049364249244,None,1301.5224855566594,None,1302.0053600876927,None,1,[0.007910082145826891],[0.5168368266531616],1302.5049364249244,None,[3 3 0 1 1 3 3 1],space,0,2.2114524710268597,0.002641461989696836,None,1302.5216215540095,None,1,1304.7363653390603,None,None,1305.235931156883,None,,,,,,,,,,,,,,,,,,,,,,,,,,,,,,,,,,,,,,,,,,,,,,01_JW,1,33,F,2022-11-22_17h07.03.843,dynamic target,2022.1.3,120.10361576697916,
0,5,4,2,mix,0,202,202,202,,,,,,,None,1306.26836999839,None,1305.277567425237,None,1305.7688064897047,None,1,[0.008637460767204175],[0.5176915286028816],1306.26836999839,None,[1 2 2 2 0 1 2 3],space,0,2.1764978872924985,0.0024612209053884726,None,1306.285022735392,None,1,1308.4665085120614,None,None,1308.9660724056007,None,,,,,,,,,,,,,,,,,,,,,,,,,,,,,,,,,,,,,,,,,,,,,,01_JW,1,33,F,2022-11-22_17h07.03.843,dynamic target,2022.1.3,120.10361576697916,
0,6,4,2,mix,0,203,203,203,,,,,,,None,1309.9985240756541,None,1309.0077029011118,1310.0068376156087,1309.4989416448625,None,2,"[0.008657345017127227, 0.7923234615518595]","[0.42489976093929727, 1.3000735075765988]",1309.9985240756541,None,[1 2 1 3 1 1 0 1],space,0,3.0548431714814797,0.0024285081090056337,None,1310.7978487167893,None,1,1313.8535656625972,None,None,1314.3531366118364,None,,,,,,,,,,,,,,,,,,,,,,,,,,,,,,,,,,,,,,,,,,,,,,01_JW,1,33,F,2022-11-22_17h07.03.843,dynamic target,2022.1.3,120.10361576697916,
1,7,2,2,mix,0,204,204,204,,,,,,,None,1315.3855748119167,None,1314.394762617354,None,1314.8859901361284,None,1,[0.00864547861056053],[0.5179602866664936],1315.3855748119167,None,[2 0 0 0 1 1 3 1],space,0,3.2334341864989256,0.0020696295068773907,None,1315.402220493219,None,1,1318.6328129860813,None,None,1319.1323784831907,None,,,,,,,,,,,,,,,,,,,,,,,,,,,,,,,,,,,,,,,,,,,,,,01_JW,1,33,F,2022-11-22_17h07.03.843,dynamic target,2022.1.3,120.10361576697916,
1,8,1,2,mix,0,205,205,205,,,,,,,None,1320.1648288703873,None,1319.182336309339,None,1319.665254457439,None,1,[0.00900948863272788],[0.5174160355563799],1320.1648288703873,None,[0 0 3 3 2 0 3 0],space,0,1.9437248621325125,0.002670005509571638,None,1320.181484814526,None,1,1322.1298069367804,None,None,1322.6293826967262,None,,,,,,,,,,,,,,,,,,,,,,,,,,,,,,,,,,,,,,,,,,,,,,01_JW,1,33,F,2022-11-22_17h07.03.843,dynamic target,2022.1.3,120.10361576697916,
0,1,4,2,mix,0,206,206,206,,,,,,,None,1323.6618292353596,None,1322.6710122300938,None,1323.1622791966474,None,1,[0.00864163004735019],[0.5177630477555795],1323.6618292353596,None,[2 1 0 2 0 2 2 1],space,0,2.541274096492998,0.002399643879471114,None,1323.6784906316316,None,1,1326.217989086752,None,None,1326.7175584324282,None,,,,,,,,,,,,,,,,,,,,,,,,,,,,,,,,,,,,,,,,,,,,,,01_JW,1,33,F,2022-11-22_17h07.03.843,dynamic target,2022.1.3,120.10361576697916,
0,2,1,2,mix,0,207,207,207,,,,,,,None,1327.7500052917749,None,1326.759188286509,None,1327.2504379345264,None,1,[0.008914878100767964],[0.5176838314764609],1327.7500052917749,None,[0 1 0 2 3 2 1 3],space,0,2.1179961846210063,0.002551341451180633,None,1327.7666609152002,None,1,1329.8898630745025,None,None,1330.3894102909321,None,,,,,,,,,,,,,,,,,,,,,,,,,,,,,,,,,,,,,,,,,,,,,,01_JW,1,33,F,2022-11-22_17h07.03.843,dynamic target,2022.1.3,120.10361576697916,
1,8,4,0,mix,0,208,208,208,,,,,,,None,1331.4218735066752,None,1330.4394290526798,1331.4385169429806,1330.9222833787571,None,2,"[0.008619821517640958, 0.9998839016479906]","[0.20838371210629703, 1.5082676778984023]",1331.4218735066752,None,[2 0 2 2 2 2 0 1],space,0,5.070686427166947,0.002766219615295995,None,1332.4293390796665,None,1,1337.5000137906864,None,None,1337.999558441406,None,,,,,,,,,,,,,,,,,,,,,,,,,,,,,,,,,,,,,,,,,,,,,,01_JW,1,33,F,2022-11-22_17h07.03.843,dynamic target,2022.1.3,120.10361576697916,
1,1,3,2,mix,0,209,209,209,,,,,,,None,1339.032019412156,None,1338.0411937476201,None,1338.5324712977272,None,1,[0.008947911606810521],[0.5176001252038986],1339.032019412156,None,[3 2 2 3 0 2 3 0],space,0,2.3704886109699146,0.002566735704021994,None,1339.0486734320148,None,1,1341.4216403478313,None,None,1341.921227332757,None,,,,,,,,,,,,,,,,,,,,,,,,,,,,,,,,,,,,,,,,,,,,,,01_JW,1,33,F,2022-11-22_17h07.03.843,dynamic target,2022.1.3,120.10361576697916,
