tar_letter,tar_pos,tar_ori,tar_pos_type,block,trials.thisRepN,trials.thisTrialN,trials.thisN,trials.thisIndex,instructions_key.keys,instructions_key.rt,instructions_key.started,instructions_key.stopped,instruction_text.started,instruction_text.stopped,fix_key.keys,fix_key.started,fix_key.stopped,fixcross.started,fixcross.stopped,roi.started,roi.stopped,roi.numLooks,roi.timesOn,roi.timesOff,RedFixCross.started,RedFixCross.stopped,distori,search_resp.keys,search_resp.corr,search_resp.rt,search_resp.started,search_resp.stopped,fixcross_shape.started,fixcross_shape.stopped,correct,feedback_text.started,feedback_text.stopped,break_key.keys,break_key.started,break_key.stopped,break_key.rt,text_q1.started,text_q1.stopped,key_resp1.keys,key_resp1.rt,key_resp1.started,key_resp1.stopped,text_q2.started,text_q2.stopped,key_resp_2.keys,key_resp_2.rt,key_resp_2.started,key_resp_2.stopped,image.started,image.stopped,text_q1_2.started,text_q1_2.stopped,slider.response,slider.rt,slider.started,slider.stopped,mouse.x,mouse.y,mouse.leftButton,mouse.midButton,mouse.rightButton,mouse.time,mouse.started,mouse.stopped,key_resp_3.keys,key_resp_3.rt,key_resp_3.started,key_resp_3.stopped,text_q4.started,text_q4.stopped,key_resp1_3.keys,key_resp1_3.rt,key_resp1_3.started,key_resp1_3.stopped,finish_text.started,finish_text.stopped,key_resp.keys,key_resp.rt,key_resp.started,key_resp.stopped,participant,group,age,gender,date,expName,psychopyVersion,frameRate,
,,,,,,,,,space,3.934657517037067,26.64330453556795,None,,,,,,,,,,,,,,,,,,,,,,,,,,,,,,,,,,,,,,,,,,,,,,,,,,,,,,,,,,,,,,,,,,,,,,,,,,02_MI,2,27,F,2022-11-24_11h11.49.780,dynamic target,2022.1.3,120.03826668092148,
0,6,2,0,mix,0,0,0,0,,,,,26.64330453556795,None,None,149.94548383517213,None,148.97239635081496,149.97878845412515,149.4459142301671,None,14,"[0.008952985600444663, 0.14177698611865708, 0.275518221872062, 0.3003820316821475, 0.32497933013610236, 0.4082152205883176, 0.4248925455713106, 0.44985032388649415, 0.5256402526438251, 0.5674020370315702, 0.5841749340775095, 0.6175234905226716, 0.650336779272493, 0.7254128039621719]","[0.13332623491578488, 0.25825720173952504, 0.2919659173344371, 0.3085922491695783, 0.3831500038804734, 0.4170578813918837, 0.44180783857655115, 0.5181096230803632, 0.5506403648928426, 0.5758098128771962, 0.6003731158994015, 0.6423472113801836, 0.7178266912887921, 1.233231753272321]",149.94548383517213,None,[2 1 3 2 2 1 3 1],space,0,3.403307314700214,0.007090613219588704,None,150.68651465363473,None,0,154.0919146676174,None,None,154.59148523475739,None,,,,,,,,,,,,,,,,,,,,,,,,,,,,,,,,,,,,,,,,,,,,,,02_MI,2,27,F,2022-11-24_11h11.49.780,dynamic target,2022.1.3,120.03826668092148,
0,7,3,2,mix,0,1,1,1,,,,,,,None,155.62393195012555,None,154.64148610067878,155.64059420166222,155.12435753444606,None,1,[0.06651687295880038],[0.5665187972285821],155.62393195012555,None,[2 0 2 0 0 2 0 1],space,0,7.706542717671255,0.0025951984339371847,None,155.690537980915,None,0,163.4005704176884,None,None,163.90015413400494,None,,,,,,,,,,,,,,,,,,,,,,,,,,,,,,,,,,,,,,,,,,,,,,02_MI,2,27,F,2022-11-24_11h11.49.780,dynamic target,2022.1.3,120.03826668092148,
1,8,3,2,mix,0,2,2,2,,,,,,,None,164.93258737948463,None,163.94177833310778,164.94091946738763,164.43301039811195,None,2,"[0.008539588322037162, 0.2674520039026902]","[0.14197999657471883, 0.7751587041457242]",164.93258737948463,None,[2 0 1 2 3 1 0 2],space,0,6.413005634107321,0.0026930154785986815,None,165.2073631539547,None,1,171.62684208737073,None,None,172.12639597750655,None,,,,,,,,,,,,,,,,,,,,,,,,,,,,,,,,,,,,,,,,,,,,,,02_MI,2,27,F,2022-11-24_11h11.49.780,dynamic target,2022.1.3,120.03826668092148,
0,1,3,2,mix,0,3,3,3,,,,,,,None,173.1588369200649,None,172.16802370443702,None,172.6592727671573,None,1,[0.0087053962297432],[0.5177568402978068],173.1588369200649,None,[1 3 2 1 3 0 0 3],space,0,6.075760046618143,0.0019627551173471147,None,173.17549371950417,None,0,179.25359469619934,None,None,179.75317969536223,None,,,,,,,,,,,,,,,,,,,,,,,,,,,,,,,,,,,,,,,,,,,,,,02_MI,2,27,F,2022-11-24_11h11.49.780,dynamic target,2022.1.3,120.03826668092148,
0,2,1,2,mix,0,4,4,4,,,,,,,None,180.78559882953056,None,179.8031696570888,None,180.27771637931983,None,1,[0.00865825162100009],[0.5164515440019386],180.78559882953056,None,[3 1 0 2 1 2 1 0],space,0,7.721573509194059,0.00223279430247203,None,180.79393797308967,None,0,188.52062015364618,None,None,189.02020098355848,None,,,,,,,,,,,,,,,,,,,,,,,,,,,,,,,,,,,,,,,,,,,,,,02_MI,2,27,F,2022-11-24_11h11.49.780,dynamic target,2022.1.3,120.03826668092148,
1,3,2,2,mix,0,5,5,5,,,,,,,None,190.04431753529252,None,189.05349662258595,None,189.54473830893858,None,1,[0.008574545888222929],[0.5175596026510902],190.04431753529252,None,[3 1 3 2 3 2 1 2],space,0,5.941570776731169,0.00241592063821372,None,190.06096310982502,None,1,196.00585298707574,None,None,196.50540399080688,None,,,,,,,,,,,,,,,,,,,,,,,,,,,,,,,,,,,,,,,,,,,,,,02_MI,2,27,F,2022-11-24_11h11.49.780,dynamic target,2022.1.3,120.03826668092148,
0,4,2,2,mix,0,6,6,6,,,,,,,None,197.53786064823498,None,196.54703460414248,None,197.038290722518,None,1,[0.009073893881577533],[0.5176545332910791],197.53786064823498,None,[3 0 2 3 2 1 1 3],space,0,10.703931162945082,0.0023700588762949337,None,197.55451456126957,None,0,208.26195372387883,None,None,208.7615380816183,None,,,,,,,,,,,,,,,,,,,,,,,,,,,,,,,,,,,,,,,,,,,,,,02_MI,2,27,F,2022-11-24_11h11.49.780,dynamic target,2022.1.3,120.03826668092148,
1,5,3,2,mix,0,7,7,7,,,,,,,None,209.79398704196774,None,208.81152162911212,None,209.29441102272995,None,1,[0.008663062295909185],[0.5169913016598002],209.79398704196774,None,[1 1 3 2 0 1 0 2],space,0,6.799776792895955,0.003156123058488447,None,209.8106342200581,None,1,216.62144771791236,None,None,217.1209977595086,None,,,,,,,,,,,,,,,,,,,,,,,,,,,,,,,,,,,,,,,,,,,,,,02_MI,2,27,F,2022-11-24_11h11.49.780,dynamic target,2022.1.3,120.03826668092148,
1,4,2,1,mix,0,8,8,8,,,,,,,None,218.15345249266693,None,217.16262869355523,None,217.65388417050826,None,1,[0.00871758327139105],[0.5176243863984382],218.15345249266693,None,[0 1 2 3 2 0 3 0],space,0,4.567666888872282,0.00252207618450484,None,218.1701147442036,None,1,222.74117545940317,None,None,223.24075693073843,None,,,,,,,,,,,,,,,,,,,,,,,,,,,,,,,,,,,,,,,,,,,,,,02_MI,2,27,F,2022-11-24_11h11.49.780,dynamic target,2022.1.3,120.03826668092148,
1,5,4,2,mix,0,9,9,9,,,,,,,None,224.27318793123686,None,223.28238112984127,None,223.77362923042665,None,1,[0.008627784017335216],[0.5176118786453117],224.27318793123686,None,[1 2 2 2 1 2 3 0],space,0,3.7433761265856447,0.002565372253229725,None,224.2898440892527,None,1,228.0366172492818,None,None,228.53618717499882,None,,,,,,,,,,,,,,,,,,,,,,,,,,,,,,,,,,,,,,,,,,,,,,02_MI,2,27,F,2022-11-24_11h11.49.780,dynamic target,2022.1.3,120.03826668092148,
0,6,3,2,mix,0,10,10,10,,,,,,,None,229.56863132467333,None,228.5862043972129,None,229.06906139895682,None,1,[0.009198650701819133],[0.5174306765798065],229.56863132467333,None,[0 0 1 3 2 1 3 2],space,0,18.03149639087769,0.002581728545919759,None,229.58528555841986,None,1,247.61976526475064,None,None,248.1193444911042,None,,,,,,,,,,,,,,,,,,,,,,,,,,,,,,,,,,,,,,,,,,,,,,02_MI,2,27,F,2022-11-24_11h11.49.780,dynamic target,2022.1.3,120.03826668092148,
0,7,2,2,mix,0,11,11,11,,,,,,,None,249.15178062298855,None,248.17765371226915,249.17675892684747,248.6521965859606,None,2,"[0.008633236114746978, 0.23336645215340468]","[0.07589929141977336, 0.7337391190562812]",249.15178062298855,None,[1 1 0 0 2 1 3 2],space,0,8.935219403796964,0.0025448467090427584,None,249.3849158420635,None,1,258.31888516792105,None,None,258.8184611871589,None,,,,,,,,,,,,,,,,,,,,,,,,,,,,,,,,,,,,,,,,,,,,,,02_MI,2,27,F,2022-11-24_11h11.49.780,dynamic target,2022.1.3,120.03826668092148,
0,8,4,2,mix,0,12,12,12,,,,,,,None,259.85090469541046,None,258.86010045970806,None,259.35133765609817,None,1,[0.008690002071489289],[0.5176160478963538],259.85090469541046,None,[2 2 0 3 3 2 2 0],space,0,2.787442865391313,0.002351136890865746,None,259.8675541184821,None,1,262.65682605820393,None,None,263.1563972667673,None,,,,,,,,,,,,,,,,,,,,,,,,,,,,,,,,,,,,,,,,,,,,,,02_MI,2,27,F,2022-11-24_11h11.49.780,dynamic target,2022.1.3,120.03826668092148,
1,1,2,2,mix,0,13,13,13,,,,,,,None,264.18885135850223,None,263.20640807474865,None,263.6892734149951,None,1,[0.008636443231353041],[0.5177302212332506],264.18885135850223,None,[3 0 1 0 1 1 0 3],space,0,3.1215576660401894,0.0022866738549964793,None,264.2054946880535,None,0,267.3361343217234,None,None,267.83570360601703,None,,,,,,,,,,,,,,,,,,,,,,,,,,,,,,,,,,,,,,,,,,,,,,02_MI,2,27,F,2022-11-24_11h11.49.780,dynamic target,2022.1.3,120.03826668092148,
0,2,2,2,mix,0,14,14,14,,,,,,,None,268.8598220820213,None,267.8773797604026,None,268.36023676214654,None,1,[0.00809764770883703],[0.5168363979469177],268.8598220820213,None,[0 0 0 3 3 2 1 0],space,0,4.178830667958664,0.0025878220667436835,None,268.8764731086512,None,1,273.0645342337202,None,None,273.56412757138565,None,,,,,,,,,,,,,,,,,,,,,,,,,,,,,,,,,,,,,,,,,,,,,,02_MI,2,27,F,2022-11-24_11h11.49.780,dynamic target,2022.1.3,120.03826668092148,
1,3,1,2,mix,0,15,15,15,,,,,,,None,274.5965544026326,None,273.6141181745352,None,274.09700083320877,None,1,[0.008704113382918877],[0.5174066232079895],274.5965544026326,None,[1 1 1 2 1 2 0 3],space,0,8.808974481463338,0.002706164654227905,None,274.61320382570466,None,1,283.42229317788633,None,None,283.9218579722174,None,,,,,,,,,,,,,,,,,,,,,,,,,,,,,,,,,,,,,,,,,,,,,,02_MI,2,27,F,2022-11-24_11h11.49.780,dynamic target,2022.1.3,120.03826668092148,
1,4,4,2,mix,0,16,16,16,,,,,,,None,284.95430212189194,None,283.963516808175,None,284.45472289553845,None,1,[0.00871116903863367],[0.5176275935145895],284.95430212189194,None,[3 1 2 2 0 3 2 1],space,0,2.97939069459062,0.0024425397023151163,None,284.970974315489,None,1,287.9517219969043,None,None,288.4512960918724,None,,,,,,,,,,,,,,,,,,,,,,,,,,,,,,,,,,,,,,,,,,,,,,02_MI,2,27,F,2022-11-24_11h11.49.780,dynamic target,2022.1.3,120.03826668092148,
0,5,3,2,mix,0,17,17,17,,,,,,,None,289.4837306201985,None,288.4929295916122,None,288.98419597276006,None,1,[0.008642216040243511],[0.5090238628686166],289.4837306201985,None,[1 2 1 3 3 1 2 1],space,0,4.425468808395635,0.0026070647636515787,None,289.49207168802695,None,1,293.9215872916093,None,None,294.42115689661483,None,,,,,,,,,,,,,,,,,,,,,,,,,,,,,,,,,,,,,,,,,,,,,,02_MI,2,27,F,2022-11-24_11h11.49.780,dynamic target,2022.1.3,120.03826668092148,
1,6,2,2,mix,0,18,18,18,,,,,,,None,295.45359912201957,None,294.4627926413359,None,294.95402823416816,None,1,[0.009091533020637144],[0.5175798074833438],295.45359912201957,None,[1 2 2 3 0 0 2 1],space,0,7.343330393108772,0.0025015506407726207,None,295.47025367647757,None,1,302.8139324183644,None,None,303.313502344081,None,,,,,,,,,,,,,,,,,,,,,,,,,,,,,,,,,,,,,,,,,,,,,,02_MI,2,27,F,2022-11-24_11h11.49.780,dynamic target,2022.1.3,120.03826668092148,
1,7,3,2,mix,0,19,19,19,,,,,,,None,304.34594585233253,None,303.3635025685794,None,303.846362456728,None,1,[0.008630349710529117],[0.5177606888373703],304.34594585233253,None,[2 3 3 2 0 0 2 0],space,0,1.9385333169725527,0.0023479297738049354,None,304.36258501263274,None,1,306.3025984696924,None,None,306.8021821860089,None,,,,,,,,,,,,,,,,,,,,,,,,,,,,,,,,,,,,,,,,,,,,,,02_MI,2,27,F,2022-11-24_11h11.49.780,dynamic target,2022.1.3,120.03826668092148,
1,6,3,1,mix,0,20,20,20,,,,,,,None,307.8346109415256,None,306.860463184551,None,307.3350394122508,None,1,[0.008934705038427637],[0.5175842974463194],307.8346109415256,None,[3 0 3 1 1 0 2 0],space,0,2.834215768851209,0.0025028334871421976,None,307.85126293029043,None,1,310.6821584276918,None,None,311.1817302776786,None,,,,,,,,,,,,,,,,,,,,,,,,,,,,,,,,,,,,,,,,,,,,,,02_MI,2,27,F,2022-11-24_11h11.49.780,dynamic target,2022.1.3,120.03826668092148,
0,7,2,2,mix,0,21,21,21,,,,,,,None,312.2141760309114,None,311.2400430266707,None,311.71460129452043,None,1,[0.008534136224170652],[0.5173835319715181],312.2141760309114,None,[0 3 0 2 3 2 0 3],space,0,3.6377645070756444,0.002578200718289736,None,312.230829943946,None,1,315.8693677426968,None,None,316.3689367062785,None,,,,,,,,,,,,,,,,,,,,,,,,,,,,,,,,,,,,,,,,,,,,,,02_MI,2,27,F,2022-11-24_11h11.49.780,dynamic target,2022.1.3,120.03826668092148,
1,8,4,2,mix,0,22,22,22,,,,,,,None,317.401376045279,None,316.42722155336014,317.4263581976775,316.89347178667776,None,2,"[0.10925714850145596, 0.12475457543223456]","[0.11648887483443104, 0.6248809358107792]",317.401376045279,None,[2 0 2 2 0 0 1 2],space,0,3.1664948161837856,0.0029515090445784153,None,317.51796305786957,None,1,320.6818835778331,None,None,321.18144997572205,None,,,,,,,,,,,,,,,,,,,,,,,,,,,,,,,,,,,,,,,,,,,,,,02_MI,2,27,F,2022-11-24_11h11.49.780,dynamic target,2022.1.3,120.03826668092148,
1,4,3,0,mix,0,23,23,23,,,,,,,None,322.2055748659586,None,321.21475908463754,322.2139008603408,321.7060036573953,None,1,[0.15857297440152252],[0.6585979899077756],322.2055748659586,None,[1 1 1 2 1 3 0 1],space,0,2.560213550809749,0.002632400982292893,None,322.3637726077636,None,1,324.92822057005833,None,None,325.4277860058124,None,,,,,,,,,,,,,,,,,,,,,,,,,,,,,,,,,,,,,,,,,,,,,,02_MI,2,27,F,2022-11-24_11h11.49.780,dynamic target,2022.1.3,120.03826668092148,
1,5,3,2,mix,0,24,24,24,,,,,,,None,326.46023111762224,None,325.47778879600355,None,325.960681717449,None,1,[0.00864029177091652],[0.5171218312889323],326.46023111762224,None,[2 2 3 0 0 0 2 1],space,0,2.863807830083715,0.0029871080341763445,None,326.4768962555636,None,1,329.3411024654383,None,None,329.84067078759705,None,,,,,,,,,,,,,,,,,,,,,,,,,,,,,,,,,,,,,,,,,,,,,,02_MI,2,27,F,2022-11-24_11h11.49.780,dynamic target,2022.1.3,120.03826668092148,
0,6,3,2,mix,0,25,25,25,,,,,,,None,330.8647899050243,None,329.8739738029917,None,330.3652231864239,None,1,[0.008714376155239734],[0.5176965465134344],330.8647899050243,None,[3 3 2 3 0 3 2 0],space,0,3.7055619815355385,0.002461140976720344,None,330.8814396488078,None,1,334.5865821955017,None,None,335.0861742503203,None,,,,,,,,,,,,,,,,,,,,,,,,,,,,,,,,,,,,,,,,,,,,,,02_MI,2,27,F,2022-11-24_11h11.49.780,dynamic target,2022.1.3,120.03826668092148,
0,7,4,2,mix,0,26,26,26,,,,,,,None,336.1102699557996,None,335.1194471188228,336.1185965916052,335.6107000300826,None,35,"[0.008470314611713547, 0.025084780117140326, 0.042074478218182776, 0.3668735684236708, 0.6332431706064199, 0.6508335615731085, 0.7254698906308477, 1.0999282888815287, 1.116759876153992, 1.1502412072100014, 1.1750264426732429, 1.2748517831246318, 1.3166148503592012, 1.3413805224136013, 1.3918566829565862, 1.40834671235325, 2.4488234052773805, 2.5239209176456825, 2.5405655300432954, 2.606877468276707, 2.623901803233366, 2.665531454433676, 2.807138463393585, 3.1313714975885887, 3.1980512920508772, 3.2646942046767435, 3.3397208397768736, 3.364983294131889, 3.9304979432763503, 3.972314248640032, 4.014013173550666, 4.197911782495794, 4.247335367500455, 4.280044745685245, 4.397051569786981]","[0.016624407565359434, 0.03365387390795149, 0.06694887151206785, 0.3750177193169293, 0.6418100194159706, 0.6672613729151635, 0.7335537477397338, 1.1084216947301684, 1.1333849251427637, 1.1665981412838846, 1.1833344772048804, 1.2829738049163097, 1.3333768432098623, 1.3579343734227223, 1.3998642106998886, 1.4164148545924036, 2.490821233418501, 2.5320333180889065, 2.5988301722927645, 2.615222063933288, 2.6564950838114783, 2.798558786119429, 3.123741447423072, 3.1897297876312223, 3.248128487337908, 3.2974391818520417, 3.3478367680477277, 3.373256371096886, 3.9645395575334987, 4.006143231092665, 4.172435413490348, 4.221880165461698, 4.2641441842474705, 4.388832372374509, 4.904858652767416]",336.1102699557996,None,[2 0 1 2 0 2 2 0],space,0,1.0960726378202708,0.0026744142041934538,None,340.51482585679696,None,0,341.6221965795462,None,None,342.1217899172112,None,,,,,,,,,,,,,,,,,,,,,,,,,,,,,,,,,,,,,,,,,,,,,,02_MI,2,27,F,2022-11-24_11h11.49.780,dynamic target,2022.1.3,120.03826668092148,
0,8,3,2,mix,0,27,27,27,,,,,,,None,343.1458798498811,None,342.15506984136937,343.1542084099565,342.6463137727037,None,53,"[0.009530907941098121, 0.05067436032504702, 0.06682443540330496, 0.10937869820600099, 0.14218076204952013, 0.2667387412584503, 0.29171544155906304, 0.3170936728088236, 1.8745526874672578, 1.8994177801241676, 2.0413599327275733, 2.2571712721928634, 2.440630185506052, 2.6986490985118508, 2.774006387292957, 2.7984539134195074, 2.906937505492351, 2.9734437949678068, 3.02346775212618, 3.040144435685761, 3.0650781606291275, 3.090026317595857, 3.1074371100548888, 3.1396593272884274, 3.1573228405045484, 3.173693244466449, 3.2648366006364995, 3.456347941320473, 3.5309990231125994, 3.5814896156784926, 3.6485003845332358, 3.6644070394918344, 3.6813649871428424, 3.697990998266505, 3.748082625576444, 4.480547878075868, 4.572037282084693, 4.755087608793474, 4.83887384038735, 5.096993456841574, 5.12226040115911, 5.296785571569217, 5.371983466674919, 5.388016161300129, 5.421913134616261, 5.454279992790816, 5.488377731581295, 5.521358752509059, 5.554245804931725, 5.571249293632718, 5.587904810225609, 5.688112759640262, 5.746167335778409]","[0.03348806600024545, 0.059260131120026927, 0.09211318811094316, 0.12545597174676004, 0.15047532669314023, 0.2753007793935467, 0.30933630012987123, 0.325456228315943, 1.8827035733047524, 2.0326680063863023, 2.0829010675211066, 2.4321560223552297, 2.690285260158362, 2.7656800721988475, 2.7901824400128135, 2.889880457950767, 2.9479398447629137, 2.9901451733226168, 3.03191433407801, 3.048256194705573, 3.0732640040332626, 3.098233007255203, 3.123772556450149, 3.1481748622386476, 3.165250831765661, 3.257393525345833, 3.439659391430723, 3.506639371969868, 3.5730488065360078, 3.6397715763555425, 3.6564806517890247, 3.6730001866544626, 3.6897115070692053, 3.7311275643301087, 3.772475310016034, 4.513917922199653, 4.589057447789855, 4.763055689007615, 4.846971488095733, 5.104933955856268, 5.130432774675228, 5.304662890394411, 5.380041987565619, 5.396327402947918, 5.438305026256785, 5.462952035011767, 5.504509205386057, 5.545940336093281, 5.5632087325930115, 5.579863607762036, 5.679838079117417, 5.7381386410679625, 6.25420917966494]",343.1458798498811,None,[2 1 2 2 2 2 2 1],space,0,1.3355778311038193,0.002479742250216077,None,348.8992638385457,None,0,350.2397768360256,None,None,350.7393474031656,None,,,,,,,,,,,,,,,,,,,,,,,,,,,,,,,,,,,,,,,,,,,,,,02_MI,2,27,F,2022-11-24_11h11.49.780,dynamic target,2022.1.3,120.03826668092148,
0,6,3,0,mix,0,28,28,28,,,,,,,None,351.7634639549001,None,350.77266196417895,None,351.26389916056905,None,1,[0.00864510244491612],[0.5176340077468922],351.7634639549001,None,[2 3 3 0 0 3 2 3],space,0,2.9979810643899327,0.0024431811257272784,None,351.7801159436649,None,1,354.78588073504534,None,None,355.285426928102,None,,,,,,,,,,,,,,,,,,,,,,,,,,,,,,,,,,,,,,,,,,,,,,02_MI,2,27,F,2022-11-24_11h11.49.780,dynamic target,2022.1.3,120.03826668092148,
0,7,2,2,mix,0,29,29,29,,,,,,,None,356.3095498940688,None,355.3271149488173,None,355.80999440037476,None,1,[0.008509762140874955],[0.5173549886371802],356.3095498940688,None,[1 2 0 3 0 3 1 1],space,0,3.683646794365359,0.002549015960084944,None,356.32620701421956,None,1,360.01468089514447,None,None,360.514264611461,None,,,,,,,,,,,,,,,,,,,,,,,,,,,,,,,,,,,,,,,,,,,,,,02_MI,2,27,F,2022-11-24_11h11.49.780,dynamic target,2022.1.3,120.03826668092148,
1,8,3,2,mix,0,30,30,30,,,,,,,None,361.53837378682783,None,360.54757307895306,361.5467020261917,361.03881091676703,None,11,"[0.04185543218136445, 0.09181749199660771, 0.7333077619268806, 0.7504651922054109, 0.7751404235827977, 0.900450150830693, 0.9163353181106686, 0.9413873856419741, 0.9581234008514912, 1.0003733083262887, 1.0162148588260607]","[0.04999124457253856, 0.09998954480124667, 0.7414355565274491, 0.7585282030590861, 0.7830915060808366, 0.9084079682725132, 0.932561722554965, 0.9501363986523756, 0.9910207160464779, 1.0083218251311337, 1.5239096927389255]",361.53837378682783,None,[2 0 1 3 2 2 3 1],space,0,2.312124831712481,0.0031336732449744886,None,362.56250637414314,None,0,364.8855033857526,None,None,365.38509159203164,None,,,,,,,,,,,,,,,,,,,,,,,,,,,,,,,,,,,,,,,,,,,,,,02_MI,2,27,F,2022-11-24_11h11.49.780,dynamic target,2022.1.3,120.03826668092148,
1,1,4,2,mix,0,31,31,31,,,,,,,None,366.40918858035684,None,365.4183740818826,366.41750206698634,365.90963020025856,None,2,"[0.024902936627768213, 0.4911092324537094]","[0.4826860624502842, 0.9912936416353659]",366.40918858035684,None,[2 0 2 3 2 0 3 0],space,0,3.158018408051248,0.003021424177404697,None,366.90043443596096,None,1,370.0643793300078,None,None,370.5639713848264,None,,,,,,,,,,,,,,,,,,,,,,,,,,,,,,,,,,,,,,,,,,,,,,02_MI,2,27,F,2022-11-24_11h11.49.780,dynamic target,2022.1.3,120.03826668092148,
0,8,3,1,mix,0,32,32,32,,,,,,,None,371.59639051899467,None,370.6055773033668,None,371.0968215554126,None,1,[0.008663383007387893],[0.51745793706732],371.59639051899467,None,[2 0 1 2 1 2 2 1],space,0,3.323868649835731,0.0025826906808106287,None,371.6130489219918,None,1,374.9351845021879,None,None,375.4347553900398,None,,,,,,,,,,,,,,,,,,,,,,,,,,,,,,,,,,,,,,,,,,,,,,02_MI,2,27,F,2022-11-24_11h11.49.780,dynamic target,2022.1.3,120.03826668092148,
1,1,4,2,mix,0,33,33,33,,,,,,,None,376.45887097963896,None,375.48478479929554,376.48385569773063,375.9593045817501,None,2,"[0.008698340574028407, 0.27502977807398565]","[0.2666200779585779, 0.7754242533674187]",376.45887097963896,None,[2 0 2 3 3 3 3 3],space,0,3.1789528590857117,0.0024531231861146807,None,376.73366695894174,None,1,379.9142298463212,None,None,380.4138042620007,None,,,,,,,,,,,,,,,,,,,,,,,,,,,,,,,,,,,,,,,,,,,,,,02_MI,2,27,F,2022-11-24_11h11.49.780,dynamic target,2022.1.3,120.03826668092148,
1,2,4,2,mix,0,34,34,34,,,,,,,None,381.4462471288289,None,380.46380288294085,381.46290392826813,380.9466605261082,None,8,"[0.008974152567589044, 0.23375034396303818, 0.3498485920440544, 0.39980038908743154, 0.48309047980364994, 0.517173786571675, 0.5670575927510981, 0.6749488304608349]","[0.2248627835328989, 0.3416005305853105, 0.37471432612392164, 0.47467564830230913, 0.4919674567504444, 0.5586943958210213, 0.6667828711770198, 1.1834720624897273]",381.4462471288289,None,[3 1 3 2 3 0 2 0],space,0,2.6956754044072113,0.002595839857349347,None,382.1289918173634,None,1,384.8266688389531,None,None,385.3262387646701,None,,,,,,,,,,,,,,,,,,,,,,,,,,,,,,,,,,,,,,,,,,,,,,02_MI,2,27,F,2022-11-24_11h11.49.780,dynamic target,2022.1.3,120.03826668092148,
1,3,1,2,mix,0,35,35,35,,,,,,,None,386.3586883664425,None,385.36787643366097,None,385.8591078572422,None,1,[0.009200895683534327],[0.5176943015317192],386.3586883664425,None,[2 0 0 2 3 3 1 0],space,0,2.8007549633389317,0.002302068012795644,None,386.3753448451698,None,1,389.18123926818726,None,None,389.68082426735015,None,,,,,,,,,,,,,,,,,,,,,,,,,,,,,,,,,,,,,,,,,,,,,,02_MI,2,27,F,2022-11-24_11h11.49.780,dynamic target,2022.1.3,120.03826668092148,
1,4,2,2,mix,0,36,36,36,,,,,,,None,390.71327290698764,None,389.7308286610996,None,390.21371356475447,None,1,[0.00933944310327206],[0.5177433704097893],390.71327290698764,None,[2 3 1 3 1 2 1 1],space,0,5.373816277628066,0.0024470296652907564,None,390.72992585788734,None,1,396.1086243844743,None,None,396.60819527232576,None,,,,,,,,,,,,,,,,,,,,,,,,,,,,,,,,,,,,,,,,,,,,,,02_MI,2,27,F,2022-11-24_11h11.49.780,dynamic target,2022.1.3,120.03826668092148,
0,5,4,2,mix,0,37,37,37,,,,,,,None,397.64063749773095,None,396.6498085672333,None,397.14106885486035,None,1,[0.009161768865851627],[0.5176740966999205],397.64063749773095,None,[1 3 3 2 3 0 1 0],space,0,1.2308661284009759,0.0024226555824498064,None,397.65730423923014,None,0,398.8979024177165,None,None,399.3974524593128,None,,,,,,,,,,,,,,,,,,,,,,,,,,,,,,,,,,,,,,,,,,,,,,02_MI,2,27,F,2022-11-24_11h11.49.780,dynamic target,2022.1.3,120.03826668092148,
1,6,4,2,mix,0,38,38,38,,,,,,,None,400.42988859119714,None,399.43908435549474,None,399.9303337389265,None,1,[0.00863131184496524],[0.5176452326536491],400.42988859119714,None,[0 1 1 2 0 1 1 1],space,0,4.409059598327531,0.002461782400132506,None,400.4465572569661,None,0,404.85942311676536,None,None,405.3589949667517,None,,,,,,,,,,,,,,,,,,,,,,,,,,,,,,,,,,,,,,,,,,,,,,02_MI,2,27,F,2022-11-24_11h11.49.780,dynamic target,2022.1.3,120.03826668092148,
1,7,1,2,mix,0,39,39,39,,,,,,,None,406.3914570762772,None,405.40061178948736,None,405.89186790786334,None,1,[0.009014241520162614],[0.5173610821580041],406.3914570762772,None,[2 2 2 2 1 3 3 1],space,0,2.6556358414218266,0.002753309262516268,None,406.40810329223314,None,1,409.072460300712,None,None,409.57203343354473,None,,,,,,,,,,,,,,,,,,,,,,,,,,,,,,,,,,,,,,,,,,,,,,02_MI,2,27,F,2022-11-24_11h11.49.780,dynamic target,2022.1.3,120.03826668092148,
0,8,4,2,mix,0,40,40,40,,,,,,,None,410.6044772625082,None,409.6220375065823,None,410.1049057332334,None,1,[0.008631953268377401],[0.5173373494981206],410.6044772625082,None,[0 1 1 1 0 3 1 3],space,0,4.2181149550774535,0.0028052645452589786,None,410.6211311755428,None,1,414.84249499529506,None,None,415.3420713352444,None,,,,,,,,,,,,,,,,,,,,,,,,,,,,,,,,,,,,,,,,,,,,,,02_MI,2,27,F,2022-11-24_11h11.49.780,dynamic target,2022.1.3,120.03826668092148,
1,1,2,2,mix,0,41,41,41,,,,,,,None,416.37451131566786,None,415.40039113989224,416.39947711177365,415.8749372207003,None,23,"[0.008624256189250445, 0.4332544596554726, 0.49983932347777227, 0.5255578297569627, 0.5500893823286788, 0.6254255041426404, 0.6422882004421808, 0.6675006237837806, 0.7838974543833501, 0.8091698507982983, 0.8415408782238956, 0.8669447664033214, 0.9086889116520069, 0.9336072424380291, 0.9757311102457606, 0.9914466210784667, 1.025035069815658, 1.0416274062190496, 1.1086654355613064, 1.2002985183762576, 1.333051641626298, 1.441418494669506, 1.650077644283101]","[0.4254040806063131, 0.4913760645217735, 0.5180900596715219, 0.5418223988845057, 0.6093344400019305, 0.6338772174799487, 0.6592384510140619, 0.6916604715870562, 0.7915704799061132, 0.825636788958036, 0.8501471745626077, 0.8837253605279329, 0.9172323485131528, 0.9419601765966945, 0.9838069495640411, 1.0003627248429439, 1.033654515330909, 1.0997608774155196, 1.1915212827439063, 1.3250396239204747, 1.4331784510013676, 1.6406567404278576, 2.157470047137849]",416.37451131566786,None,[2 0 0 1 3 2 2 2],space,0,2.807238790172505,0.002768382708836725,None,418.03142524885607,None,1,420.83732319970113,None,None,421.33690627459424,None,,,,,,,,,,,,,,,,,,,,,,,,,,,,,,,,,,,,,,,,,,,,,,02_MI,2,27,F,2022-11-24_11h11.49.780,dynamic target,2022.1.3,120.03826668092148,
1,2,3,2,mix,0,42,42,42,,,,,,,None,422.3610196192126,None,421.37859301246317,422.3776651937451,421.86145450417007,None,11,"[0.02521498903479369, 0.0414420349025022, 0.3911491931216915, 0.4581006303264985, 0.6005876719736989, 0.6833681519251513, 0.792064375802056, 0.8332838368396551, 0.8666692751212395, 0.9244506049581105, 0.9744588472467512]","[0.033376458356087824, 0.050070781054728286, 0.40050595465254446, 0.466335221897225, 0.6088379784137032, 0.691949753469089, 0.799759851138333, 0.8585860594357655, 0.9165572505521595, 0.9665032747861915, 1.482984965680771]",422.3610196192126,None,[1 3 2 2 2 0 2 0],space,0,0.8071435388214923,0.002456651013744704,None,423.343510047574,None,0,424.15947321192016,None,None,424.65904377906014,None,,,,,,,,,,,,,,,,,,,,,,,,,,,,,,,,,,,,,,,,,,,,,,02_MI,2,27,F,2022-11-24_11h11.49.780,dynamic target,2022.1.3,120.03826668092148,
1,3,3,2,mix,0,43,43,43,,,,,,,None,425.68316097221805,None,424.6923557743803,425.6914885701585,425.1835955364636,None,18,"[0.008605654915754712, 0.10010339742666474, 0.1500699472044289, 0.16672578450879882, 0.22520337927426226, 0.24216581688779115, 0.3000010262771866, 0.3249883100615989, 0.3583625234359715, 0.3832086941074522, 0.4091254001677953, 0.43356202209952244, 0.4587529577629539, 0.5176971879363919, 0.5340512356056024, 0.5592062515675025, 0.6256727728023179, 0.6918891389727833]","[0.091721278510704, 0.14204927028504244, 0.15871569107275718, 0.17535388923761275, 0.2336637518255884, 0.25865488414956417, 0.3087022532558876, 0.350281552731758, 0.36644285271722765, 0.40019678865064634, 0.42517092325806516, 0.4502589104913568, 0.4997655598053825, 0.5257492945947888, 0.5499283850949723, 0.6093896024012793, 0.6834624411412733, 1.2001128263482315]",425.68316097221805,None,[1 2 3 1 2 1 3 2],space,0,2.0877328528385988,0.0027356701239114045,None,426.38256630873093,None,1,428.48075217137784,None,None,428.9803111928996,None,,,,,,,,,,,,,,,,,,,,,,,,,,,,,,,,,,,,,,,,,,,,,,02_MI,2,27,F,2022-11-24_11h11.49.780,dynamic target,2022.1.3,120.03826668092148,
0,6,4,0,mix,0,44,44,44,,,,,,,None,430.0044447423498,None,429.0136292817406,None,429.5048963043114,None,1,[0.008647347426631313],[0.5089132173598045],430.0044447423498,None,[3 2 3 2 3 1 1 2],space,0,2.42614005781752,0.0026663964135877904,None,430.0127713781553,None,0,432.44400920314047,None,None,432.9435800909924,None,,,,,,,,,,,,,,,,,,,,,,,,,,,,,,,,,,,,,,,,,,,,,,02_MI,2,27,F,2022-11-24_11h11.49.780,dynamic target,2022.1.3,120.03826668092148,
0,5,1,1,mix,0,45,45,45,,,,,,,None,433.967700491266,None,432.97688310638705,None,433.4681270377214,None,1,[0.008673966491187457],[0.5177725551675394],433.967700491266,None,[3 2 1 2 1 0 3 3],space,0,4.708813035233561,0.002303992282577383,None,433.9843508764725,None,1,438.6969602311174,None,None,439.19653240181566,None,,,,,,,,,,,,,,,,,,,,,,,,,,,,,,,,,,,,,,,,,,,,,,02_MI,2,27,F,2022-11-24_11h11.49.780,dynamic target,2022.1.3,120.03826668092148,
0,6,1,2,mix,0,46,46,46,,,,,,,None,440.2206531228012,None,439.22983509649885,440.22897462722085,439.7210825556608,None,23,"[0.009656626896230591, 0.20042006808034785, 0.30828468672552845, 0.34167589781600327, 0.3749250336586556, 0.43322238849304995, 0.4581833739243848, 0.47481387501056815, 0.4998367577850331, 0.5253628370919614, 0.6009699602250294, 0.6587926618612983, 0.6834650068340125, 0.7334225766867348, 0.7505697441938537, 0.775051265752154, 0.8003566954644157, 0.85020746834698, 0.9172118229694206, 0.9331396448951637, 0.9919825301963101, 1.0167148482423727, 1.2081864206847968]","[0.06713488425157266, 0.3003281521300778, 0.316932034151705, 0.36648743163186737, 0.3914612455282622, 0.44978361586936444, 0.46678133176101255, 0.49146009096648413, 0.517452805681387, 0.5674613686815064, 0.6504612153812559, 0.6673771498099086, 0.725554237787037, 0.7420583784946757, 0.7673051179799586, 0.792594512111009, 0.8253221708582714, 0.9006996644711762, 0.925231537754371, 0.9833358241935457, 1.0091762008883052, 1.2004508563959462, 1.7159797130657353]",440.2206531228012,None,[3 0 3 0 2 3 1 1],space,0,3.001479386747633,0.002968506760225864,None,441.4362999372047,None,1,444.4420272053253,None,None,444.9415705119773,None,,,,,,,,,,,,,,,,,,,,,,,,,,,,,,,,,,,,,,,,,,,,,,02_MI,2,27,F,2022-11-24_11h11.49.780,dynamic target,2022.1.3,120.03826668092148,
1,7,1,2,mix,0,47,47,47,,,,,,,None,445.96570245786967,None,444.9748930907813,None,445.46613060788286,None,1,[0.008649913119370467],[0.508946571368142],445.96570245786967,None,[0 1 3 1 1 2 2 2],space,0,3.3909050756201395,0.0026760177624964854,None,445.9740290936752,None,1,449.362777439605,None,None,449.86234928959135,None,,,,,,,,,,,,,,,,,,,,,,,,,,,,,,,,,,,,,,,,,,,,,,02_MI,2,27,F,2022-11-24_11h11.49.780,dynamic target,2022.1.3,120.03826668092148,
0,3,4,0,mix,0,48,48,48,,,,,,,None,450.89477772439704,None,449.91235913543824,450.91144446589624,450.3952212685681,None,17,"[0.017573713962519832, 0.06754539512621704, 0.10846948076141416, 0.15857169155515294, 0.17545202699375295, 0.3499342220466133, 0.3920420542735883, 0.458617296747434, 0.4835526252491036, 0.5081290774473928, 0.5336798515490955, 0.5589548136567828, 0.5757148822381168, 0.6418837830888151, 0.7586901624276834, 0.7833769394233059, 0.8750796166600594]","[0.058397737571795005, 0.10042763687488332, 0.14998046866230652, 0.16802145945621305, 0.2171063729888374, 0.3752200883495789, 0.4005017854015023, 0.4667736346827951, 0.491353935420193, 0.5258852763217874, 0.550864542315594, 0.5671422606192209, 0.6011373716914932, 0.7507798103056302, 0.7755583108246356, 0.8678963177817423, 1.3833077939980285]",450.89477772439704,None,[0 2 0 1 0 2 3 2],space,0,1.7797095460837227,0.00253714963037055,None,451.77737033148105,None,1,453.5591732182702,None,None,454.0587213355971,None,,,,,,,,,,,,,,,,,,,,,,,,,,,,,,,,,,,,,,,,,,,,,,02_MI,2,27,F,2022-11-24_11h11.49.780,dynamic target,2022.1.3,120.03826668092148,
1,4,4,2,mix,0,49,49,49,,,,,,,None,455.0828577714519,None,454.0920448765355,455.09117959658306,454.58328784573496,None,2,"[0.00965021266392796, 0.10918530909839319]","[0.10039043432698236, 0.6169202319642864]",455.0828577714519,None,[0 2 1 3 3 1 2 0],space,0,1.653447626034449,0.003035856200312992,None,455.1994284277498,None,0,456.872979596968,None,None,457.36422384901385,None,,,,,,,,,,,,,,,,,,,,,,,,,,,,,,,,,,,,,,,,,,,,,,02_MI,2,27,F,2022-11-24_11h11.49.780,dynamic target,2022.1.3,120.03826668092148,
1,5,4,2,mix,0,50,50,50,,,,,,,None,458.3883509842317,None,457.3975454656829,None,457.8887647022225,None,1,[0.00876152076307335],[0.5178427910118444],458.3883509842317,None,[0 3 2 1 0 0 3 1],space,0,3.247004978572477,0.002303671570643928,None,458.40499303093657,None,1,461.65219722738357,None,None,462.1517668323891,None,,,,,,,,,,,,,,,,,,,,,,,,,,,,,,,,,,,,,,,,,,,,,,02_MI,2,27,F,2022-11-24_11h11.49.780,dynamic target,2022.1.3,120.03826668092148,
1,6,3,2,mix,0,51,51,51,,,,,,,None,463.18419622932925,None,462.1934240647888,463.192544032102,462.6846423391935,None,26,"[0.008632273979856109, 0.050219911958265584, 0.15010586690596028, 0.183394450277774, 0.20004194908005957, 0.39953612271165184, 0.4166188271833562, 0.44114396552231483, 0.5756648512251559, 0.6002599046973955, 0.6335773521150259, 0.65843442698133, 0.6755286770708153, 0.6915607302730677, 0.7333892226783973, 0.7750461343666757, 0.883196827777283, 0.9666671584245705, 0.9832315929165816, 1.0248269279736633, 1.124581391157335, 1.1992760897301196, 1.290965297078401, 1.34095525880457, 1.3743730889596009, 1.4327445281787732]","[0.016835435811572097, 0.06680519270594232, 0.15789755572859576, 0.19165469877816577, 0.20835190788147884, 0.4077107412094847, 0.4256013182530296, 0.4497999721620545, 0.5837252963856372, 0.6083027107188173, 0.6500234440195527, 0.6669987100976869, 0.6836635273275533, 0.7000823587441118, 0.7581946629738923, 0.8754606220650203, 0.9495751533158909, 0.9749027121297331, 1.01708494945251, 1.0993689678152805, 1.1913634926263512, 1.2835536515262902, 1.3328649874633811, 1.366432269233428, 1.424666764590711, 1.9402722713375624]",463.18419622932925,None,[1 1 1 3 1 0 1 1],space,0,3.028576952995536,0.0030974328319643973,None,464.62464489205786,None,1,467.65539215654826,None,None,468.1549203897544,None,,,,,,,,,,,,,,,,,,,,,,,,,,,,,,,,,,,,,,,,,,,,,,02_MI,2,27,F,2022-11-24_11h11.49.780,dynamic target,2022.1.3,120.03826668092148,
0,7,3,2,mix,0,52,52,52,,,,,,,None,469.1790552220509,None,468.19656735938224,469.1957017587183,468.6794801649485,None,5,"[0.008607258473602997, 0.050175333042716375, 0.06685682727675157, 0.10844735165937891, 0.45816188624621645]","[0.03427252662368119, 0.058400623976467614, 0.10041512912175676, 0.26695073163955385, 0.9582481576721875]",469.1790552220509,None,[1 2 0 0 1 1 3 2],space,0,3.759575591253906,0.003020782754447282,None,469.6370124942832,None,1,473.40041711753383,None,None,473.8999924953478,None,,,,,,,,,,,,,,,,,,,,,,,,,,,,,,,,,,,,,,,,,,,,,,02_MI,2,27,F,2022-11-24_11h11.49.780,dynamic target,2022.1.3,120.03826668092148,
0,8,2,2,mix,0,53,53,53,,,,,,,None,474.93243247577175,None,473.95831743138206,None,474.43285998436204,None,1,[0.008768576418788143],[0.5171657687810693],474.93243247577175,None,[2 3 0 3 1 1 1 1],space,0,2.335213823414506,0.002871331139431277,None,474.94908510595997,None,1,477.28873603060356,None,None,477.7883053148972,None,,,,,,,,,,,,,,,,,,,,,,,,,,,,,,,,,,,,,,,,,,,,,,02_MI,2,27,F,2022-11-24_11h11.49.780,dynamic target,2022.1.3,120.03826668092148,
1,1,1,2,mix,0,54,54,54,,,,,,,None,478.8124346950963,None,477.8215955018268,None,478.3128503373564,None,1,[0.008670117951169232],[0.5178536952071227],478.8124346950963,None,[0 0 3 2 2 3 2 0],space,0,3.7343294931915807,0.0021186209660299937,None,478.8290767418007,None,1,482.5675418672986,None,None,483.06709190889484,None,,,,,,,,,,,,,,,,,,,,,,,,,,,,,,,,,,,,,,,,,,,,,,02_MI,2,27,F,2022-11-24_11h11.49.780,dynamic target,2022.1.3,120.03826668092148,
0,2,1,2,mix,0,55,55,55,,,,,,,None,484.09121134703355,None,483.10040069709885,None,483.5916407798936,None,1,[0.00869256776468319],[0.5176667203322722],484.09121134703355,None,[2 1 2 2 0 3 3 0],space,0,3.0469720094183685,0.002624062479753775,None,484.1078511487567,None,1,487.15523853568175,None,None,487.65481134780345,None,,,,,,,,,,,,,,,,,,,,,,,,,,,,,,,,,,,,,,,,,,,,,,02_MI,2,27,F,2022-11-24_11h11.49.780,dynamic target,2022.1.3,120.03826668092148,
1,3,1,2,mix,0,56,56,56,,,,,,,None,488.6789359173281,None,487.6881220602768,488.68726608096176,488.1793457867793,None,1,[0.06647004906244547],[0.5668151347663297],488.6789359173281,None,[0 1 1 2 0 1 2 3],space,0,3.8502677061737813,0.0026455501583768637,None,488.7455483623503,None,0,492.6005395652305,None,None,493.10012135727726,None,,,,,,,,,,,,,,,,,,,,,,,,,,,,,,,,,,,,,,,,,,,,,,02_MI,2,27,F,2022-11-24_11h11.49.780,dynamic target,2022.1.3,120.03826668092148,
0,4,3,2,mix,0,57,57,57,,,,,,,None,494.1325732040309,None,493.14174074570565,None,493.63299686408163,None,1,[0.008715338290130603],[0.5176407426911283],494.1325732040309,None,[1 1 2 3 3 3 0 1],space,0,2.8617889504321283,0.002504757756469189,None,494.1492187785634,None,1,497.01342659199645,None,None,497.5129913863271,None,,,,,,,,,,,,,,,,,,,,,,,,,,,,,,,,,,,,,,,,,,,,,,02_MI,2,27,F,2022-11-24_11h11.49.780,dynamic target,2022.1.3,120.03826668092148,
0,5,1,2,mix,0,58,58,58,,,,,,,None,498.53710857948454,None,497.55462167895075,498.5537656996353,498.03753737092165,None,6,"[0.15812077101600153, 0.17507454941596734, 2.7570227827118288, 2.9064971684369993, 2.9649388435009314, 2.989890528295291]","[0.16672033241093231, 0.18401406512839458, 2.7729566981583957, 2.956394123792961, 2.9726064169262827, 3.497616150523754]",498.53710857948454,None,[2 3 3 2 2 0 1 1],space,0,2.468104531949848,0.0027757590760302264,None,501.5345387172688,None,1,504.0074065141662,None,None,504.50697002565045,None,,,,,,,,,,,,,,,,,,,,,,,,,,,,,,,,,,,,,,,,,,,,,,02_MI,2,27,F,2022-11-24_11h11.49.780,dynamic target,2022.1.3,120.03826668092148,
1,7,3,0,mix,0,59,59,59,,,,,,,None,505.5310843324032,None,504.5402736824685,505.53940423326503,505.03150991672373,None,16,"[0.008480898095058365, 0.16665971791462653, 0.6832222281373106, 0.774494189667621, 0.7922163931102659, 0.874571609452687, 0.9002551581652369, 0.932987306875475, 1.008223045952036, 1.058203386329751, 1.1240698561223326, 1.1659708293536823, 1.2909899918731753, 1.3076762967812101, 1.332956710986764, 1.474155133342265]","[0.07493555299970467, 0.18317315925969524, 0.6920745102893306, 0.7831774567953289, 0.8001777383801709, 0.8832593665433706, 0.9247283412219076, 0.9999130871506168, 1.0164560339644595, 1.1080506313846854, 1.1580271232232917, 1.2829661078371828, 1.2995908361144757, 1.3238834585285986, 1.4654224766250081, 1.9822595159948833]",505.5310843324032,None,[3 3 3 3 3 0 3 2],space,0,0.9886384141705093,0.002389942996614991,None,507.0131466107514,None,0,508.01228357578066,None,space,508.5201798165913,None,1.0392851932956546,,,,,,,,,,,,,,,,,,,,,,,,,,,,,,,,,,,,,,,,,,,,,02_MI,2,27,F,2022-11-24_11h11.49.780,dynamic target,2022.1.3,120.03826668092148,
0,8,2,2,mix,0,60,60,60,,,,,,,None,510.60173389530564,None,509.6109149068684,510.61003455346963,510.1021492168543,None,1,[0.03318884205782524],[0.533414302327401],510.60173389530564,None,[1 1 3 1 2 1 2 1],space,0,2.6468765656400137,0.002764854881206702,None,510.6350276100634,None,1,513.282745778954,None,None,513.7823272502887,None,,,,,,,,,,,,,,,,,,,,,,,,,,,,,,,,,,,,,,,,,,,,,,02_MI,2,27,F,2022-11-24_11h11.49.780,dynamic target,2022.1.3,120.03826668092148,
1,7,2,1,mix,0,61,61,61,,,,,,,None,514.8064351428097,None,513.8156254550095,514.8147604957685,514.306871952037,None,2,"[0.008608220608493866, 0.5090485576638457]","[0.5000853092910802, 1.0166850220616652]",514.8064351428097,None,[3 0 1 0 1 1 3 3],space,0,1.5426760772602393,0.002747215742147091,None,515.322657057291,None,0,516.871321838601,None,None,517.3708933678759,None,,,,,,,,,,,,,,,,,,,,,,,,,,,,,,,,,,,,,,,,,,,,,,02_MI,2,27,F,2022-11-24_11h11.49.780,dynamic target,2022.1.3,120.03826668092148,
1,3,2,0,mix,0,62,62,62,,,,,,,None,518.3950112024568,None,517.4042018353684,None,517.8954448045679,None,1,[0.008612710571014759],[0.5179774898924734],518.3950112024568,None,[0 1 1 3 0 0 2 2],space,0,5.2856016599771465,0.002147805723325291,None,518.4116494006221,None,1,523.7071274309137,None,None,524.2066967152073,None,,,,,,,,,,,,,,,,,,,,,,,,,,,,,,,,,,,,,,,,,,,,,,02_MI,2,27,F,2022-11-24_11h11.49.780,dynamic target,2022.1.3,120.03826668092148,
0,4,4,2,mix,0,63,63,63,,,,,,,None,525.230793382821,None,524.2483513819143,None,524.7312218535462,None,1,[0.008963569084244227],[0.5176061058359664],525.230793382821,None,[0 1 3 2 0 1 0 2],space,0,3.249027706763627,0.002511171988771821,None,525.2474331845442,None,1,528.4946553408427,None,None,528.9942255872711,None,,,,,,,,,,,,,,,,,,,,,,,,,,,,,,,,,,,,,,,,,,,,,,02_MI,2,27,F,2022-11-24_11h11.49.780,dynamic target,2022.1.3,120.03826668092148,
0,5,3,2,mix,0,64,64,64,,,,,,,None,530.0266905832009,None,529.0358594077225,None,529.5270924348615,None,1,[0.008718224694348464],[0.5091527889399003],530.0266905832009,None,[1 0 2 3 2 1 0 3],space,0,1.485810379099803,0.002602574801130686,None,530.034989958519,None,1,531.5253740619987,None,None,532.0249446291386,None,,,,,,,,,,,,,,,,,,,,,,,,,,,,,,,,,,,,,,,,,,,,,,02_MI,2,27,F,2022-11-24_11h11.49.780,dynamic target,2022.1.3,120.03826668092148,
1,6,1,2,mix,0,65,65,65,,,,,,,None,533.0573903823715,None,532.0832795072329,None,532.5578166081154,None,1,[0.008616238398644782],[0.5171526196045306],533.0573903823715,None,[2 2 3 3 0 2 1 3],space,0,1.2628786002346715,0.002948301927972352,None,533.074035956904,None,0,534.3396233434441,None,None,534.8391967969887,None,,,,,,,,,,,,,,,,,,,,,,,,,,,,,,,,,,,,,,,,,,,,,,02_MI,2,27,F,2022-11-24_11h11.49.780,dynamic target,2022.1.3,120.03826668092148,
1,7,3,2,mix,0,66,66,66,,,,,,,None,535.8716322874498,None,534.8808248446312,535.8799553954277,535.3720607581749,None,2,"[0.008296809624880552, 0.025612671444378066]","[0.016510554939941358, 0.5333200131108242]",535.8716322874498,None,[1 3 3 3 3 1 3 3],space,0,2.671782067960976,0.0024406154329881247,None,535.9049413963653,None,1,538.5859757298272,None,None,539.0855328270791,None,,,,,,,,,,,,,,,,,,,,,,,,,,,,,,,,,,,,,,,,,,,,,,02_MI,2,27,F,2022-11-24_11h11.49.780,dynamic target,2022.1.3,120.03826668092148,
1,8,4,2,mix,0,67,67,67,,,,,,,None,540.1179756939077,None,539.1354862276808,540.1346263998257,539.6184054474793,None,2,"[0.008950740619638964, 0.22503660923166535]","[0.21660029005170145, 0.7341220487314786]",540.1179756939077,None,[1 1 3 0 0 2 2 1],space,0,5.200672412167933,0.0024120720981954946,None,540.3511330420843,None,1,545.5549619539802,None,None,546.0545312382737,None,,,,,,,,,,,,,,,,,,,,,,,,,,,,,,,,,,,,,,,,,,,,,,02_MI,2,27,F,2022-11-24_11h11.49.780,dynamic target,2022.1.3,120.03826668092148,
0,1,2,2,mix,0,68,68,68,,,,,,,None,547.0869587109441,None,546.0961631344558,None,546.5874064243667,None,1,[0.008633236114746978],[0.5091887086418865],547.0869587109441,None,[2 3 3 2 0 2 0 0],space,0,4.519880536691289,0.0023472883508475206,None,547.0952949680986,None,1,551.6164080555059,None,None,552.1159799054926,None,,,,,,,,,,,,,,,,,,,,,,,,,,,,,,,,,,,,,,,,,,,,,,02_MI,2,27,F,2022-11-24_11h11.49.780,dynamic target,2022.1.3,120.03826668092148,
1,2,2,2,mix,0,69,69,69,,,,,,,None,553.1401015886127,None,552.1576008974794,None,552.6405278143566,None,1,[0.008646706003219151],[0.5172087441383155],553.1401015886127,None,[0 2 3 2 1 2 3 0],space,0,2.7157179564251237,0.0027475364536257985,None,553.1567497288383,None,1,555.8710899640996,None,None,556.3706486649094,None,,,,,,,,,,,,,,,,,,,,,,,,,,,,,,,,,,,,,,,,,,,,,,02_MI,2,27,F,2022-11-24_11h11.49.780,dynamic target,2022.1.3,120.03826668092148,
1,1,2,1,mix,0,70,70,70,,,,,,,None,557.3947658580669,None,556.403939172551,None,556.8951869524249,None,1,[0.009119434932017612],[0.5174649927230348],557.3947658580669,None,[3 2 2 1 3 0 2 0],space,0,2.5878265006317633,0.0027199552541787853,None,557.4114050183671,None,1,560.0008566207384,None,None,560.5004268671669,None,,,,,,,,,,,,,,,,,,,,,,,,,,,,,,,,,,,,,,,,,,,,,,02_MI,2,27,F,2022-11-24_11h11.49.780,dynamic target,2022.1.3,120.03826668092148,
1,2,1,2,mix,0,71,71,71,,,,,,,None,561.5245469467291,None,560.5337282790038,None,561.0249600232964,None,1,[0.008695133457877091],[0.5087310531589537],561.5245469467291,None,[0 3 2 1 3 2 1 2],space,0,2.243792089557246,0.003032007660749514,None,561.5328713375534,None,1,563.780935041144,None,None,564.2805065704188,None,,,,,,,,,,,,,,,,,,,,,,,,,,,,,,,,,,,,,,,,,,,,,,02_MI,2,27,F,2022-11-24_11h11.49.780,dynamic target,2022.1.3,120.03826668092148,
1,3,4,2,mix,0,72,72,72,,,,,,,None,565.3129459094193,None,564.3221275624055,None,564.8133702108935,None,1,[0.009508137415650708],[0.5175198344099954],565.3129459094193,None,[2 0 1 0 3 2 1 2],space,0,3.1971413772253072,0.0025525437881697144,None,565.3296293279232,None,1,568.5268493354533,None,None,569.0264202233047,None,,,,,,,,,,,,,,,,,,,,,,,,,,,,,,,,,,,,,,,,,,,,,,02_MI,2,27,F,2022-11-24_11h11.49.780,dynamic target,2022.1.3,120.03826668092148,
0,4,3,2,mix,0,73,73,73,,,,,,,None,570.0505367750393,None,569.0597242008348,None,569.5509658871874,None,1,[0.009113020699260233],[0.5175098923500627],570.0505367750393,None,[3 0 1 0 3 3 3 3],space,0,1.947844216741487,0.002639456637098192,None,570.0671775388973,None,1,572.0155105761069,None,None,572.5150821053817,None,,,,,,,,,,,,,,,,,,,,,,,,,,,,,,,,,,,,,,,,,,,,,,02_MI,2,27,F,2022-11-24_11h11.49.780,dynamic target,2022.1.3,120.03826668092148,
0,5,2,2,mix,0,74,74,74,,,,,,,None,573.5475304243078,None,572.5650377509646,None,573.0479547257819,None,1,[0.009027069985222624],[0.5173565921954832],573.5475304243078,None,[3 3 2 1 1 1 1 1],space,0,1.7465675279222523,0.002553505923060584,None,573.5641843373423,None,1,575.3126745873883,None,None,575.8122586244162,None,,,,,,,,,,,,,,,,,,,,,,,,,,,,,,,,,,,,,,,,,,,,,,02_MI,2,27,F,2022-11-24_11h11.49.780,dynamic target,2022.1.3,120.03826668092148,
1,6,2,2,mix,0,75,75,75,,,,,,,None,576.844687700645,None,575.8538802578264,None,576.3451174542165,None,1,[0.008645423156849574],[0.5178395838961478],576.844687700645,None,[3 3 1 1 2 3 2 0],space,0,1.056353465743996,0.002307520110207406,None,576.861341934391,None,0,577.9187634257901,None,None,578.4183445764133,None,,,,,,,,,,,,,,,,,,,,,,,,,,,,,,,,,,,,,,,,,,,,,,02_MI,2,27,F,2022-11-24_11h11.49.780,dynamic target,2022.1.3,120.03826668092148,
1,8,4,0,mix,0,76,76,76,,,,,,,None,579.4424563174734,None,578.4599690962282,None,578.9428774118314,None,1,[0.00862842544029263],[0.517337990921078],579.4424563174734,None,[1 0 2 0 3 0 3 2],space,0,3.226989366331054,0.0027840975785693445,None,579.4591034955642,None,0,582.6896560239584,None,None,583.1892256289634,None,,,,,,,,,,,,,,,,,,,,,,,,,,,,,,,,,,,,,,,,,,,,,,02_MI,2,27,F,2022-11-24_11h11.49.780,dynamic target,2022.1.3,120.03826668092148,
0,1,4,2,mix,0,77,77,77,,,,,,,None,584.2133425014094,None,583.2225363414373,None,583.713758785093,None,1,[0.008644461021958705],[0.5175955223526216],584.2133425014094,None,[2 3 2 0 2 3 1 1],space,0,2.4877500429811334,0.00262342105679636,None,584.2299954523091,None,1,586.7278434773348,None,None,587.2274159687445,None,,,,,,,,,,,,,,,,,,,,,,,,,,,,,,,,,,,,,,,,,,,,,,02_MI,2,27,F,2022-11-24_11h11.49.780,dynamic target,2022.1.3,120.03826668092148,
0,2,1,2,mix,0,78,78,78,,,,,,,None,588.2515315583441,None,587.260725398372,588.2598581941497,587.7519613119157,None,35,"[0.008689360648531874, 0.19176502357549907, 0.2916471299836303, 0.40827679721951426, 0.48355807734651535, 0.500246947947744, 0.5590102967671555, 0.6004933827571222, 0.6177659485078948, 0.691915437325406, 0.7336387363193353, 0.7921920190269702, 0.8257195325563771, 0.8674437936847426, 0.8920997823647667, 0.9172156715089841, 0.9334260403725239, 0.9504490924823585, 0.9751756377190759, 1.0501198499323436, 1.091473689139093, 1.1254646309603231, 1.2414275387368434, 1.2584733613721255, 1.3088193129970023, 1.4086363149463068, 1.4750800656561296, 1.5082862261415357, 1.5411335103231067, 1.6082247777949306, 1.6245422643391976, 1.6409870733973548, 1.7246123077575248, 1.8743708439783404, 1.9324315136368568]","[0.016935177125560585, 0.27492266039280366, 0.3998350259421386, 0.4247828621973895, 0.4913863272936396, 0.5504485793435379, 0.5918187748429773, 0.6083174634532043, 0.6837267075165983, 0.7257081793650286, 0.7583893349274149, 0.8003557333295248, 0.8587983705283477, 0.8839662149548531, 0.8997513202093614, 0.9255262717338155, 0.9416365785714333, 0.9673477084834303, 1.0336654195261872, 1.083794570095506, 1.1090262361349232, 1.233622700738124, 1.249844294507966, 1.2993503023990343, 1.3993132281357248, 1.4667402806740029, 1.4997350922012629, 1.5166850220616652, 1.5999520215414123, 1.6166726425931301, 1.6330222002998198, 1.708561653281322, 1.8665458011473675, 1.9246042258246234, 2.440725116145586]",588.2515315583441,None,[3 3 0 1 2 3 1 2],space,0,2.2697408667809214,0.0027023161151191744,None,590.1915315455158,None,1,592.4645729115418,None,None,592.9641380265844,None,,,,,,,,,,,,,,,,,,,,,,,,,,,,,,,,,,,,,,,,,,,,,,02_MI,2,27,F,2022-11-24_11h11.49.780,dynamic target,2022.1.3,120.03826668092148,
1,2,4,0,mix,0,79,79,79,,,,,,,None,593.9966229066349,None,593.014101369246,594.0132370514284,593.4970167405049,None,35,"[0.008627142593923054, 0.05025583165979697, 0.13383327998826644, 0.15841614641885826, 0.18341786222617884, 0.29210638902441133, 0.7176223979863607, 0.8009044709124282, 0.8256399960746421, 0.9252876622881558, 0.9415301023132088, 1.0416540252836057, 1.074814324007093, 1.100155031997474, 1.1415194546875682, 1.2500412114432038, 1.291850140439692, 1.3333159080020778, 1.42460037728506, 1.4915229504440504, 1.707767250597044, 1.9074025373420227, 2.0239561959238017, 2.0740609724102796, 2.4743591059327628, 2.532150377830476, 2.7065960117583927, 2.748822827996719, 2.7738575771004435, 2.790148444580609, 2.873751229127265, 2.8983308884417056, 2.924050356855787, 3.048608656776196, 4.838063081409928]","[0.04217903020662561, 0.1171107346667668, 0.14207717219596816, 0.1670644559799257, 0.19205270189922885, 0.3003130786842121, 0.7256475648687228, 0.809092238586345, 0.8336462409711203, 0.9336155809401134, 0.9503817430418167, 1.0587357676199645, 1.0917139021430557, 1.1333435533438205, 1.2332702386670462, 1.2667897344058474, 1.324771509006041, 1.4001759423949807, 1.4830199232474115, 1.6998944217343706, 1.899327018735221, 2.01538485715173, 2.065604448398517, 2.4572424060297635, 2.523966137984189, 2.6818592037498092, 2.7153940936464096, 2.7653616055595194, 2.7822300746679502, 2.865317475640495, 2.890380447367079, 2.9064125005693313, 2.9321072741886383, 3.0565876411851605, 5.338340176250313]",593.9966229066349,None,[2 3 0 0 1 2 1 1],space,0,3.290727273097673,0.00246434809287166,None,598.8340897851422,None,1,602.1229201049623,None,None,602.622496765623,None,,,,,,,,,,,,,,,,,,,,,,,,,,,,,,,,,,,,,,,,,,,,,,02_MI,2,27,F,2022-11-24_11h11.49.780,dynamic target,2022.1.3,120.03826668092148,
1,3,1,2,mix,0,80,80,80,,,,,,,None,603.646609468818,None,602.6557821418787,603.6549351424887,603.1470462780453,None,27,"[0.008698661285507114, 0.08351523027386065, 0.100118150160597, 0.16673957510829496, 0.18340824087727015, 0.20006119177696746, 0.2504392145642669, 0.2916759940294469, 0.3083004015948063, 0.35864923962481043, 0.4498467960584094, 0.46738619387770086, 0.5839735271797508, 0.6089848643355253, 0.6758352773799743, 0.7089843511971594, 0.7671970381638857, 0.7999195655252151, 0.8340070415442824, 0.8674453972425908, 0.9752827554002579, 1.0173197103586062, 1.0756600405507015, 1.091819095554456, 1.141536131691737, 1.1666654907239717, 1.2665851203919374]","[0.0504825747752875, 0.09210869814796752, 0.15836771896420032, 0.1757644001118024, 0.191612364843877, 0.21691234245827218, 0.25862345441009893, 0.3003182100696904, 0.3252416722416456, 0.36715130468655843, 0.458458544494988, 0.49175033498295306, 0.6004237883353198, 0.6257606477861373, 0.6840105373007646, 0.7256690525468912, 0.7916724662013621, 0.8168290857215652, 0.842080315169369, 0.8755068045384178, 0.9836988697479683, 1.0336253305731589, 1.0835966910253774, 1.124995109147676, 1.15899567231736, 1.2587523804818375, 1.774293103481341]",603.646609468818,None,[1 2 0 3 0 2 3 0],space,0,6.276094484696387,0.0030525332044817333,None,604.9205138698153,None,1,611.1984351838605,None,None,611.6979974124984,None,,,,,,,,,,,,,,,,,,,,,,,,,,,,,,,,,,,,,,,,,,,,,,02_MI,2,27,F,2022-11-24_11h11.49.780,dynamic target,2022.1.3,120.03826668092148,
0,4,1,2,mix,0,81,81,81,,,,,,,None,612.7221280755443,None,611.7313029935863,None,612.222579637506,None,1,[0.008646064579806989],[0.5178508088029048],612.7221280755443,None,[1 2 3 0 2 3 0 0],space,0,1.289286957209697,0.0022853910086269025,None,612.7387835921368,None,0,614.0293489618243,None,None,614.528908624769,None,,,,,,,,,,,,,,,,,,,,,,,,,,,,,,,,,,,,,,,,,,,,,,02_MI,2,27,F,2022-11-24_11h11.49.780,dynamic target,2022.1.3,120.03826668092148,
0,5,2,2,mix,0,82,82,82,,,,,,,None,615.5530258179269,None,614.5705867034244,615.5696733167288,615.0534456294381,None,2,"[0.00948183906302802, 0.2417280455256332]","[0.09211318811094316, 0.7422690860294097]",615.5530258179269,None,[3 2 1 1 2 2 2 1],space,0,3.4658842454005026,0.0026670378369999526,None,615.7944838242679,None,1,619.2581693267557,None,None,619.7577402146071,None,,,,,,,,,,,,,,,,,,,,,,,,,,,,,,,,,,,,,,,,,,,,,,02_MI,2,27,F,2022-11-24_11h11.49.780,dynamic target,2022.1.3,120.03826668092148,
1,6,1,2,mix,0,83,83,83,,,,,,,None,620.7818561249182,None,619.7910493235227,None,620.2822919720106,None,1,[0.008611427724645182],[0.5174563335094717],620.7818561249182,None,[2 0 1 3 2 2 3 2],space,0,4.284792504558482,0.0026381737911833625,None,620.7985241492643,None,1,625.0864837370341,None,None,625.5860559077323,None,,,,,,,,,,,,,,,,,,,,,,,,,,,,,,,,,,,,,,,,,,,,,,02_MI,2,27,F,2022-11-24_11h11.49.780,dynamic target,2022.1.3,120.03826668092148,
1,5,2,1,mix,0,84,84,84,,,,,,,None,626.6184958881563,None,625.6276868417795,None,626.1189545057737,None,1,[0.00865055454278263],[0.5169085580614592],626.6184958881563,None,[3 2 3 1 2 2 2 2],space,0,2.3370835721625554,0.0032565057958890975,None,626.63515364973,None,1,628.9748023293923,None,None,629.4743722551093,None,,,,,,,,,,,,,,,,,,,,,,,,,,,,,,,,,,,,,,,,,,,,,,02_MI,2,27,F,2022-11-24_11h11.49.780,dynamic target,2022.1.3,120.03826668092148,
1,6,4,2,mix,0,85,85,85,,,,,,,None,630.5068218568817,None,629.5160038305794,None,630.007258666109,None,1,[0.008725921773020673],[0.5177882700363625],630.5068218568817,None,[2 3 1 3 0 2 3 1],space,0,1.5992367786693649,0.002464989516283822,None,630.5234542822377,None,1,632.1220936311161,None,None,632.6216625946981,None,,,,,,,,,,,,,,,,,,,,,,,,,,,,,,,,,,,,,,,,,,,,,,02_MI,2,27,F,2022-11-24_11h11.49.780,dynamic target,2022.1.3,120.03826668092148,
1,7,3,2,mix,0,86,86,86,,,,,,,None,633.6541179692795,None,632.6716743648144,None,633.1545416293302,None,1,[0.008610144878275605],[0.5174710862438587],633.6541179692795,None,[2 0 0 1 3 2 3 0],space,0,1.1727528620363046,0.0025852563735497824,None,633.6707616195422,None,1,634.8447473530064,None,None,635.3443198444161,None,,,,,,,,,,,,,,,,,,,,,,,,,,,,,,,,,,,,,,,,,,,,,,02_MI,2,27,F,2022-11-24_11h11.49.780,dynamic target,2022.1.3,120.03826668092148,
0,6,3,1,mix,0,87,87,87,,,,,,,None,636.3767559763005,None,635.394329690263,None,635.8772113868017,None,1,[0.008674607914144872],[0.5176083508176816],636.3767559763005,None,[3 0 3 0 2 1 2 2],space,0,2.5936025169189634,0.002248829884138104,None,636.3934053993726,None,1,638.9911778647402,None,None,639.4907497147269,None,,,,,,,,,,,,,,,,,,,,,,,,,,,,,,,,,,,,,,,,,,,,,,02_MI,2,27,F,2022-11-24_11h11.49.780,dynamic target,2022.1.3,120.03826668092148,
1,7,1,2,mix,0,88,88,88,,,,,,,None,640.514865625038,None,639.5324364525959,None,640.0152979443023,None,1,[0.008999168073842156],[0.5173950775897538],640.514865625038,None,[2 2 2 2 1 3 3 3],space,0,2.5033032737342182,0.0027324630077600887,None,640.5315246694586,None,1,643.0376938781924,None,None,643.5372647660438,None,,,,,,,,,,,,,,,,,,,,,,,,,,,,,,,,,,,,,,,,,,,,,,02_MI,2,27,F,2022-11-24_11h11.49.780,dynamic target,2022.1.3,120.03826668092148,
0,8,3,2,mix,0,89,89,89,,,,,,,None,644.5697063500256,None,643.5872611420027,None,644.070137386444,None,1,[0.00885164072860789],[0.5173097682986736],644.5697063500256,None,[1 1 0 3 2 3 1 3],space,0,3.2159770914145156,0.002859785520740843,None,644.5863650737347,None,1,647.8002624062478,None,None,648.2998294455601,None,,,,,,,,,,,,,,,,,,,,,,,,,,,,,,,,,,,,,,,,,,,,,,02_MI,2,27,F,2022-11-24_11h11.49.780,dynamic target,2022.1.3,120.03826668092148,
0,7,1,1,mix,0,90,90,90,,,,,,,None,649.323947921564,None,648.3331379130523,None,648.8243776751356,None,1,[0.008643498886613088],[0.5087525408380316],649.323947921564,None,[0 1 3 3 3 2 0 3],space,0,1.9899039422252827,0.0029046851477687596,None,649.3322973278946,None,1,651.3222298694127,None,None,651.8218241692125,None,,,,,,,,,,,,,,,,,,,,,,,,,,,,,,,,,,,,,,,,,,,,,,02_MI,2,27,F,2022-11-24_11h11.49.780,dynamic target,2022.1.3,120.03826668092148,
0,8,3,2,mix,0,91,91,91,,,,,,,None,652.8542394548413,None,651.8634355398503,None,652.3546711326826,None,1,[0.008603409934039519],[0.5177975706737925],652.8542394548413,None,[3 2 2 0 2 1 3 0],space,0,1.730871259786909,0.002320348574357922,None,652.8708936885878,None,1,654.6027264977711,None,None,655.1023063655484,None,,,,,,,,,,,,,,,,,,,,,,,,,,,,,,,,,,,,,,,,,,,,,,02_MI,2,27,F,2022-11-24_11h11.49.780,dynamic target,2022.1.3,120.03826668092148,
0,1,3,2,mix,0,92,92,92,,,,,,,None,656.1264213137247,None,655.1356148330406,None,655.6268385595426,None,1,[0.00865440308189136],[0.5174858389782457],656.1264213137247,None,[1 0 2 2 0 0 2 3],space,0,2.3468024171133948,0.0025432431516492215,None,656.1430765096056,None,1,658.4910563150361,None,None,658.9906230336369,None,,,,,,,,,,,,,,,,,,,,,,,,,,,,,,,,,,,,,,,,,,,,,,02_MI,2,27,F,2022-11-24_11h11.49.780,dynamic target,2022.1.3,120.03826668092148,
1,2,1,2,mix,0,93,93,93,,,,,,,None,660.0147408682174,None,659.0322728896695,660.031394139829,659.5151571519009,None,2,"[0.008635160384528717, 0.35829196687927833]","[0.20118496529585173, 0.8584224965088652]",660.0147408682174,None,[0 3 3 2 0 1 2 2],space,0,1.8447652568993362,0.00288993241292701,None,660.3727679272984,None,0,662.2295005942783,None,None,662.729073085688,None,,,,,,,,,,,,,,,,,,,,,,,,,,,,,,,,,,,,,,,,,,,,,,02_MI,2,27,F,2022-11-24_11h11.49.780,dynamic target,2022.1.3,120.03826668092148,
0,3,4,2,mix,0,94,94,94,,,,,,,None,663.7531752053997,None,662.7623812324691,663.7615140282469,663.2536299744775,None,1,[0.08310119157204099],[0.583204781425593],663.7531752053997,None,[3 2 3 2 2 3 2 1],space,0,1.7738065279950206,0.002913985784744,None,663.8364569576138,None,1,665.6099248700957,None,None,666.1094957579471,None,,,,,,,,,,,,,,,,,,,,,,,,,,,,,,,,,,,,,,,,,,,,,,02_MI,2,27,F,2022-11-24_11h11.49.780,dynamic target,2022.1.3,120.03826668092148,
0,4,1,2,mix,0,95,95,95,,,,,,,None,667.1336119889697,None,666.142801339035,None,666.6340411011183,None,1,[0.008986981032194308],[0.5173460087116837],667.1336119889697,None,[2 1 1 2 0 1 0 3],space,0,1.6909676785285228,0.0026227796329294506,None,667.1502793718923,None,1,668.84047547422,None,None,669.3400466827834,None,,,,,,,,,,,,,,,,,,,,,,,,,,,,,,,,,,,,,,,,,,,,,,02_MI,2,27,F,2022-11-24_11h11.49.780,dynamic target,2022.1.3,120.03826668092148,
1,5,4,2,mix,0,96,96,96,,,,,,,None,670.3641677244805,None,669.3817302135362,None,669.8645779146432,None,1,[0.008538626186691545],[0.5174637098766652],670.3641677244805,None,[2 1 3 3 1 2 2 3],space,0,3.980404464023195,0.002646512293267733,None,670.3808184303989,None,1,674.3607226402519,None,None,674.8602960937965,None,,,,,,,,,,,,,,,,,,,,,,,,,,,,,,,,,,,,,,,,,,,,,,02_MI,2,27,F,2022-11-24_11h11.49.780,dynamic target,2022.1.3,120.03826668092148,
1,6,4,2,mix,0,97,97,97,,,,,,,None,675.8843966099498,None,674.9019789831259,675.901054050812,675.3848667731854,None,3,"[0.008627463305856509, 0.3249774058663206, 0.5081470372983858]","[0.3165090155243888, 0.4999143699974411, 1.0086258597480082]",675.8843966099498,None,[3 0 3 2 3 2 0 0],space,0,2.928153164660216,0.0025111719892265683,None,676.3923066413604,None,1,679.3231163163318,None,None,679.8226932977041,None,,,,,,,,,,,,,,,,,,,,,,,,,,,,,,,,,,,,,,,,,,,,,,02_MI,2,27,F,2022-11-24_11h11.49.780,dynamic target,2022.1.3,120.03826668092148,
0,2,4,0,mix,0,98,98,98,,,,,,,None,680.8468050387642,None,679.8643194210767,None,680.3472357544706,None,1,[0.008711489750112378],[0.5174066232079895],680.8468050387642,None,[2 0 1 2 3 2 3 2],space,0,1.864391525233259,0.0027279730447844486,None,680.8634871744216,None,1,682.7285156888915,None,None,683.2280868974549,None,,,,,,,,,,,,,,,,,,,,,,,,,,,,,,,,,,,,,,,,,,,,,,02_MI,2,27,F,2022-11-24_11h11.49.780,dynamic target,2022.1.3,120.03826668092148,
0,7,1,0,mix,0,99,99,99,,,,,,,None,684.2605502898268,None,683.2864115127772,None,683.7609604799895,None,1,[0.008627463305856509],[0.5176125200687238],684.2605502898268,None,[0 2 0 1 0 0 2 3],space,0,1.3788232274491747,0.002543243150739727,None,684.277185280876,None,1,685.6593266467098,None,None,686.1588991381195,None,,,,,,,,,,,,,,,,,,,,,,,,,,,,,,,,,,,,,,,,,,,,,,02_MI,2,27,F,2022-11-24_11h11.49.780,dynamic target,2022.1.3,120.03826668092148,
1,8,2,2,mix,0,100,100,100,,,,,,,None,687.1830150484307,None,686.1922063227653,None,686.6834290871329,None,1,[0.008698661285507114],[0.5175034781173053],687.1830150484307,None,[1 0 3 2 2 0 2 3],space,0,3.8803257613913047,0.002595839857349347,None,687.1996654336372,None,1,691.0796577109013,None,None,691.5792305230229,None,,,,,,,,,,,,,,,,,,,,,,,,,,,,,,,,,,,,,,,,,,,,,,02_MI,2,27,F,2022-11-24_11h11.49.780,dynamic target,2022.1.3,120.03826668092148,
1,1,1,2,mix,0,101,101,101,,,,,,,None,692.6033464333336,None,691.6125367455338,None,692.1037723383661,None,1,[0.00862072836207517],[0.5173723070647611],692.6033464333336,None,[0 1 1 1 0 0 1 2],space,0,3.051949774481727,0.0026593407574182493,None,692.620020871912,None,1,695.6757031441925,None,None,696.175273069909,None,,,,,,,,,,,,,,,,,,,,,,,,,,,,,,,,,,,,,,,,,,,,,,02_MI,2,27,F,2022-11-24_11h11.49.780,dynamic target,2022.1.3,120.03826668092148,
1,2,2,2,mix,0,102,102,102,,,,,,,None,697.1993828866994,None,696.2085760853042,None,696.6998232237547,None,1,[0.008590902180912963],[0.517587504562016],697.1993828866994,None,[0 1 3 1 3 1 1 2],space,0,2.8550084653493286,0.0024268248330372444,None,697.2160396861386,None,1,700.0719157323801,None,None,700.5714862995201,None,,,,,,,,,,,,,,,,,,,,,,,,,,,,,,,,,,,,,,,,,,,,,,02_MI,2,27,F,2022-11-24_11h11.49.780,dynamic target,2022.1.3,120.03826668092148,
0,3,3,2,mix,0,103,103,103,,,,,,,None,701.5956050962359,None,700.604787711357,None,701.0960335669611,None,1,[0.009150543959094648],[0.5173290109960362],701.5956050962359,None,[0 3 2 2 3 1 1 1],space,0,3.3229927863999364,0.0027545921097953396,None,701.6122641406564,None,1,704.9343820817135,None,None,705.4339712501273,None,,,,,,,,,,,,,,,,,,,,,,,,,,,,,,,,,,,,,,,,,,,,,,02_MI,2,27,F,2022-11-24_11h11.49.780,dynamic target,2022.1.3,120.03826668092148,
0,6,1,0,mix,0,104,104,104,,,,,,,None,706.4664099477045,None,705.4755957699417,706.4747394699148,705.966840021988,None,2,"[0.008907765262392786, 0.2592812339444208]","[0.08385935384330878, 0.7670142325405322]",706.4664099477045,None,[2 3 3 2 2 1 1 0],space,0,3.194761376288625,0.0027157860026818526,None,706.7328529928486,None,0,709.93842048244,None,None,710.4380041987565,None,,,,,,,,,,,,,,,,,,,,,,,,,,,,,,,,,,,,,,,,,,,,,,02_MI,2,27,F,2022-11-24_11h11.49.780,dynamic target,2022.1.3,120.03826668092148,
0,5,1,1,mix,0,105,105,105,,,,,,,None,711.4621095255839,None,710.4796851638162,711.4787727392554,710.9625360720393,None,3,"[0.008953627023856825, 0.24211995512587237, 0.2667047458262459]","[0.07520334720311439, 0.2583386624914965, 0.7668647809250615]",711.4621095255839,None,[0 0 0 2 2 3 2 1],space,0,1.958564002660296,0.002925210691500979,None,711.7285448736493,None,1,713.6935279753538,None,None,714.1930898832802,None,,,,,,,,,,,,,,,,,,,,,,,,,,,,,,,,,,,,,,,,,,,,,,02_MI,2,27,F,2022-11-24_11h11.49.780,dynamic target,2022.1.3,120.03826668092148,
0,6,3,2,mix,0,106,106,106,,,,,,,None,715.2171952101075,None,714.2264005957536,None,714.7176326607582,None,1,[0.00918389796743213],[0.5173209932054306],715.2171952101075,None,[1 0 1 2 1 2 0 1],space,0,3.55648463679654,0.0028039816988894017,None,715.233858744491,None,1,718.7891321094548,None,None,719.2887074872692,None,,,,,,,,,,,,,,,,,,,,,,,,,,,,,,,,,,,,,,,,,,,,,,02_MI,2,27,F,2022-11-24_11h11.49.780,dynamic target,2022.1.3,120.03826668092148,
0,8,2,0,mix,0,107,107,107,,,,,,,None,720.3211458641349,None,719.3303509290695,None,719.8215627892419,None,1,[0.008617841956947814],[0.5178357353561296],720.3211458641349,None,[2 1 1 0 2 3 0 3],space,0,2.5009511747084616,0.0021394672212409205,None,720.3378004185925,None,1,722.8439731551543,None,None,723.3435462879875,None,,,,,,,,,,,,,,,,,,,,,,,,,,,,,,,,,,,,,,,,,,,,,,02_MI,2,27,F,2022-11-24_11h11.49.780,dynamic target,2022.1.3,120.03826668092148,
0,1,3,2,mix,0,108,108,108,,,,,,,None,724.3759875512574,None,723.3851746563414,724.3843125835051,723.876416663406,None,1,[0.16640731786947072],[0.6669307192346423],724.3759875512574,None,[3 0 3 3 0 0 2 1],space,0,2.311795140166396,0.0025602408672966703,None,724.5425119288684,None,1,726.8571883981926,None,None,727.3567547960815,None,,,,,,,,,,,,,,,,,,,,,,,,,,,,,,,,,,,,,,,,,,,,,,02_MI,2,27,F,2022-11-24_11h11.49.780,dynamic target,2022.1.3,120.03826668092148,
1,2,1,2,mix,0,109,109,109,,,,,,,None,728.3808716685276,None,727.3984129906166,None,727.8813004599647,None,1,[0.008973190432698175],[0.5173190689356488],728.3808716685276,None,[2 1 2 2 3 1 1 3],space,0,1.5277629869024167,0.002316179323315737,None,728.3975114702512,None,0,729.9295438262047,None,None,730.429093226378,None,,,,,,,,,,,,,,,,,,,,,,,,,,,,,,,,,,,,,,,,,,,,,,02_MI,2,27,F,2022-11-24_11h11.49.780,dynamic target,2022.1.3,120.03826668092148,
1,3,2,2,mix,0,110,110,110,,,,,,,None,731.4532258136933,None,730.4624225401258,None,730.9536546051299,None,1,[0.008942402117554593],[0.5175932773713612],731.4532258136933,None,[0 0 3 0 0 2 3 0],space,0,4.120049359288259,0.002553505923060584,None,731.4698813302862,None,1,735.5913168611569,None,None,736.0909060295708,None,,,,,,,,,,,,,,,,,,,,,,,,,,,,,,,,,,,,,,,,,,,,,,02_MI,2,27,F,2022-11-24_11h11.49.780,dynamic target,2022.1.3,120.03826668092148,
1,5,3,0,mix,0,111,111,111,,,,,,,None,737.115003017896,None,736.1242084035425,None,736.6154491277603,None,1,[0.008655685928715684],[0.5177950049805986],737.115003017896,None,[1 0 3 0 0 2 3 3],space,0,4.873125144085861,0.0023280456539396255,None,737.131671042242,None,1,742.0024765351341,None,None,742.5020442158693,None,,,,,,,,,,,,,,,,,,,,,,,,,,,,,,,,,,,,,,,,,,,,,,02_MI,2,27,F,2022-11-24_11h11.49.780,dynamic target,2022.1.3,120.03826668092148,
1,6,1,2,mix,0,112,112,112,,,,,,,None,743.5344896483907,None,742.5520463646376,743.551132977942,743.0349139498649,None,1,[0.09149966678023702],[0.5915923524389655],743.5344896483907,None,[2 2 0 2 1 1 1 0],space,0,3.339257034815546,0.0029928808435215615,None,743.6260839250995,None,1,746.9648682869442,None,None,747.4644471925867,None,,,,,,,,,,,,,,,,,,,,,,,,,,,,,,,,,,,,,,,,,,,,,,02_MI,2,27,F,2022-11-24_11h11.49.780,dynamic target,2022.1.3,120.03826668092148,
1,7,3,2,mix,0,113,113,113,,,,,,,None,748.4885550851072,None,747.4977486044231,None,747.9889697652325,None,1,[0.008582884390762047],[0.5089824910701282],748.4885550851072,None,[2 2 1 1 2 0 2 2],space,0,1.7331091854757688,0.0027173895614396315,None,748.4968842866056,None,1,750.228724151445,None,None,750.7282960014313,None,,,,,,,,,,,,,,,,,,,,,,,,,,,,,,,,,,,,,,,,,,,,,,02_MI,2,27,F,2022-11-24_11h11.49.780,dynamic target,2022.1.3,120.03826668092148,
0,8,3,2,mix,0,114,114,114,,,,,,,None,751.76073886826,None,750.7782506848794,None,751.2611702253894,None,1,[0.009674266035290202],[0.5173774384506942],751.76073886826,None,[0 0 0 0 2 0 2 3],space,0,0.6280870339237481,0.0025252833002014086,None,751.7774033647779,None,0,752.4101863142087,None,None,752.9097511085397,None,,,,,,,,,,,,,,,,,,,,,,,,,,,,,,,,,,,,,,,,,,,,,,02_MI,2,27,F,2022-11-24_11h11.49.780,dynamic target,2022.1.3,120.03826668092148,
1,1,2,2,mix,0,115,115,115,,,,,,,None,753.9422084073908,None,752.9597490880565,753.9588331356681,753.4426240496509,None,1,[0.07481111689094178],[0.5748252282023714],753.9422084073908,None,[1 1 1 1 2 0 2 1],space,0,1.8279686271935134,0.00305349533982735,None,754.0171192655957,None,1,755.8488851743355,None,None,756.3484592693035,None,,,,,,,,,,,,,,,,,,,,,,,,,,,,,,,,,,,,,,,,,,,,,,02_MI,2,27,F,2022-11-24_11h11.49.780,dynamic target,2022.1.3,120.03826668092148,
0,2,1,2,mix,0,116,116,116,,,,,,,None,757.3725745381912,None,756.3900892412153,757.3892255648211,756.8730030089164,None,1,[0.14186454039145246],[0.6501145261195234],757.3725745381912,None,[2 3 2 2 1 2 0 0],space,0,2.2096157764199233,0.0025708243506414874,None,757.5224475684604,None,1,759.7371986353078,None,None,760.236774975257,None,,,,,,,,,,,,,,,,,,,,,,,,,,,,,,,,,,,,,,,,,,,,,,02_MI,2,27,F,2022-11-24_11h11.49.780,dynamic target,2022.1.3,120.03826668092148,
1,3,1,2,mix,0,117,117,117,,,,,,,None,761.2608921684146,None,760.2701177588929,761.2692265012993,760.7613139041955,None,2,"[0.008637405365789164, 0.2750349094599187]","[0.058809210580875515, 0.775442213217957]",761.2608921684146,None,[3 3 1 0 3 3 3 1],space,0,2.212690759438374,0.0026635100084604346,None,761.5356743571174,None,1,763.7504138783461,None,None,764.2499860490443,None,,,,,,,,,,,,,,,,,,,,,,,,,,,,,,,,,,,,,,,,,,,,,,02_MI,2,27,F,2022-11-24_11h11.49.780,dynamic target,2022.1.3,120.03826668092148,
1,5,3,0,mix,0,118,118,118,,,,,,,None,765.274101317932,None,764.283302855039,None,764.7745429378338,None,1,[0.008655044505303522],[0.5176352905937165],765.274101317932,None,[0 1 0 1 3 0 1 2],space,0,3.3052747522083337,0.002510530565814406,None,765.2907414403671,None,1,768.5962712142718,None,None,769.0957988060545,None,,,,,,,,,,,,,,,,,,,,,,,,,,,,,,,,,,,,,,,,,,,,,,02_MI,2,27,F,2022-11-24_11h11.49.780,dynamic target,2022.1.3,120.03826668092148,
1,6,3,2,mix,0,119,119,119,,,,,,,None,770.1282545013478,None,769.1374329472178,770.1365676672654,769.6286855377657,None,2,"[0.009117510661781125, 0.35823423878764515]","[0.19201517863939443, 0.8586402596993139]",770.1282545013478,None,[3 0 3 3 1 0 1 3],space,0,2.7333952602411955,0.002747857165104506,None,770.4862818811403,None,1,773.2172612767017,None,space,773.7251639317446,None,0.7633275965035864,,,,,,,,,,,,,,,,,,,,,,,,,,,,,,,,,,,,,,,,,,,,,02_MI,2,27,F,2022-11-24_11h11.49.780,dynamic target,2022.1.3,120.03826668092148,
0,7,2,2,mix,0,120,120,120,,,,,,,None,775.531937746026,None,774.5411232475512,775.5402608540035,775.0323646131928,None,1,[0.11647251854219576],[0.6167868159300269],775.531937746026,None,[2 0 2 0 2 3 0 3],space,0,3.890529843024069,0.0027597234948188998,None,775.6484910838963,None,1,779.5368071105613,None,None,780.0363924304361,None,,,,,,,,,,,,,,,,,,,,,,,,,,,,,,,,,,,,,,,,,,,,,,02_MI,2,27,F,2022-11-24_11h11.49.780,dynamic target,2022.1.3,120.03826668092148,
0,8,1,2,mix,0,121,121,121,,,,,,,None,781.0688205445299,None,780.0780131017109,781.0771600088001,780.5692650508358,None,1,[0.04983153018565645],[0.5499771332615637],781.0688205445299,None,[3 0 3 3 2 1 1 0],space,0,2.612294873013525,0.002824507242621621,None,781.1187919049821,None,1,783.733207699901,None,None,784.232790774794,None,,,,,,,,,,,,,,,,,,,,,,,,,,,,,,,,,,,,,,,,,,,,,,02_MI,2,27,F,2022-11-24_11h11.49.780,dynamic target,2022.1.3,120.03826668092148,
0,7,4,1,mix,0,122,122,122,,,,,,,None,785.2652211338695,None,784.2827621352467,785.2818737640573,784.7656508874411,None,1,[0.11644205093807614],[0.6167852123721786],785.2652211338695,None,[0 1 3 1 3 3 1 1],space,0,2.108901423356201,0.002737915105171851,None,785.3817815273956,None,1,787.4883055714663,None,None,787.9878783835875,None,,,,,,,,,,,,,,,,,,,,,,,,,,,,,,,,,,,,,,,,,,,,,,02_MI,2,27,F,2022-11-24_11h11.49.780,dynamic target,2022.1.3,120.03826668092148,
1,8,3,2,mix,0,123,123,123,,,,,,,None,789.0203244575323,None,788.0295125247508,789.0286446791056,788.5207494004294,None,1,[0.08304250134551694],[0.5830530848288618],789.0203244575323,None,[2 3 0 1 3 0 1 3],space,0,1.3471853467881374,0.002997050094563747,None,789.103577987124,None,0,790.4607471426198,None,None,790.9603263689733,None,,,,,,,,,,,,,,,,,,,,,,,,,,,,,,,,,,,,,,,,,,,,,,02_MI,2,27,F,2022-11-24_11h11.49.780,dynamic target,2022.1.3,120.03826668092148,
0,1,4,2,mix,0,124,124,124,,,,,,,None,791.9844371478985,None,790.9936204044429,791.9927660286858,791.4848524694471,None,1,[0.10805383850129147],[0.616931777582522],791.9844371478985,None,[0 3 1 0 3 2 3 3],space,0,2.4932755834929594,0.0026429844651829626,None,792.1010023520989,None,1,794.5988747512079,None,None,795.0984186992832,None,,,,,,,,,,,,,,,,,,,,,,,,,,,,,,,,,,,,,,,,,,,,,,02_MI,2,27,F,2022-11-24_11h11.49.780,dynamic target,2022.1.3,120.03826668092148,
1,8,1,1,mix,0,125,125,125,,,,,,,None,796.1225387788454,None,795.1400377670002,796.1391923711685,795.6229534589711,None,5,"[0.008620728361620422, 0.2501063159024852, 0.27551148692828065, 0.3251201225375553, 0.4748590953495295]","[0.10879147522882704, 0.26705688718584497, 0.3165798927925607, 0.46637948010084074, 0.9834945764459917]",796.1225387788454,None,[2 2 1 1 1 0 0 3],space,0,3.3806920140618786,0.00259006704800413,None,796.6054765999179,None,1,799.9858761809401,None,None,800.4854483516383,None,,,,,,,,,,,,,,,,,,,,,,,,,,,,,,,,,,,,,,,,,,,,,,02_MI,2,27,F,2022-11-24_11h11.49.780,dynamic target,2022.1.3,120.03826668092148,
0,1,2,2,mix,0,126,126,126,,,,,,,None,801.517890897755,None,800.552061117372,801.551204817345,801.0183398940239,None,1,[0.19174834657133033],[0.7004909453485197],801.517890897755,None,[1 2 0 1 3 2 0 1],space,0,2.4759696637333946,0.002768061997358018,None,801.7177198943191,None,1,804.1989011778455,None,None,804.698485535585,None,,,,,,,,,,,,,,,,,,,,,,,,,,,,,,,,,,,,,,,,,,,,,,02_MI,2,27,F,2022-11-24_11h11.49.780,dynamic target,2022.1.3,120.03826668092148,
1,2,3,2,mix,0,127,127,127,,,,,,,None,805.7309171775069,None,804.740135070906,805.7392489446984,805.2313773986821,None,1,[0.13305202648052727],[0.6331597855851214],805.7309171775069,None,[1 2 1 2 3 3 1 2],space,0,1.9613660600894036,0.002835090725966438,None,805.8641513681878,None,0,807.8374495600797,None,None,808.3370252586055,None,,,,,,,,,,,,,,,,,,,,,,,,,,,,,,,,,,,,,,,,,,,,,,02_MI,2,27,F,2022-11-24_11h11.49.780,dynamic target,2022.1.3,120.03826668092148,
0,3,4,2,mix,0,128,128,128,,,,,,,None,809.3611373203771,None,808.370307427745,None,808.8615664325257,None,1,[0.008632273980310856],[0.5174842354203975],809.3611373203771,None,[0 0 1 1 0 0 1 2],space,0,2.447764359548273,0.002578521429313696,None,809.3777921955466,None,1,811.8256855371246,None,None,812.3252394272604,None,,,,,,,,,,,,,,,,,,,,,,,,,,,,,,,,,,,,,,,,,,,,,,02_MI,2,27,F,2022-11-24_11h11.49.780,dynamic target,2022.1.3,120.03826668092148,
1,4,1,2,mix,0,129,129,129,,,,,,,None,813.349369128171,None,812.366884151907,None,812.849785732566,None,1,[0.008774349227678613],[0.5174781418995735],813.349369128171,None,[2 0 2 0 0 3 0 1],space,0,6.011256280501584,0.002673772781236039,None,813.3660223997822,None,1,819.3775131764369,None,None,819.8770840642883,None,,,,,,,,,,,,,,,,,,,,,,,,,,,,,,,,,,,,,,,,,,,,,,02_MI,2,27,F,2022-11-24_11h11.49.780,dynamic target,2022.1.3,120.03826668092148,
1,5,3,2,mix,0,130,130,130,,,,,,,None,820.9095246861352,None,819.9187040941401,None,820.4099470633396,None,1,[0.008732336005778052],[0.5087342602755598],820.9095246861352,None,[3 3 1 2 1 2 0 1],space,0,2.5710253809634196,0.0029617718159897777,None,820.9178394556111,None,1,823.4906294478692,None,None,823.9902070706648,None,,,,,,,,,,,,,,,,,,,,,,,,,,,,,,,,,,,,,,,,,,,,,,02_MI,2,27,F,2022-11-24_11h11.49.780,dynamic target,2022.1.3,120.03826668092148,
0,2,2,0,mix,0,131,131,131,,,,,,,None,825.0143117560692,None,824.0235142553106,None,824.5147533759709,None,1,[0.00861912480331739],[0.5175756382318468],825.0143117560692,None,[0 3 0 2 3 3 2 2],space,0,2.473735586584553,0.002481666519997816,None,825.0309631034106,None,1,827.5038456530424,None,None,828.0034152580474,None,,,,,,,,,,,,,,,,,,,,,,,,,,,,,,,,,,,,,,,,,,,,,,02_MI,2,27,F,2022-11-24_11h11.49.780,dynamic target,2022.1.3,120.03826668092148,
1,3,4,2,mix,0,132,132,132,,,,,,,None,829.0275180191825,None,828.036727894791,None,828.5279775989347,None,1,[0.008743881624013738],[0.5173524229444411],829.0275180191825,None,[0 2 3 1 2 3 3 0],space,0,1.2438889444674714,0.002578200718289736,None,829.0441879677978,None,0,830.3014371729141,None,None,830.8010282655978,None,,,,,,,,,,,,,,,,,,,,,,,,,,,,,,,,,,,,,,,,,,,,,,02_MI,2,27,F,2022-11-24_11h11.49.780,dynamic target,2022.1.3,120.03826668092148,
1,4,2,2,mix,0,133,133,133,,,,,,,None,831.8251236503652,None,830.8343142832769,None,831.3255501968206,None,1,[0.009133225531513744],[0.517653891867667],831.8251236503652,None,[3 3 2 0 3 0 0 0],space,0,2.9420242629626046,0.0025259247236135707,None,831.8417791669576,None,1,834.7892408306943,None,None,835.2888187742014,None,,,,,,,,,,,,,,,,,,,,,,,,,,,,,,,,,,,,,,,,,,,,,,02_MI,2,27,F,2022-11-24_11h11.49.780,dynamic target,2022.1.3,120.03826668092148,
1,5,2,2,mix,0,134,134,134,,,,,,,None,836.3212533025276,None,835.3387894932307,None,835.8216997331037,None,1,[0.008206368947867304],[0.5171122099404784],836.3212533025276,None,[3 3 1 1 0 3 1 0],space,0,2.397794602653903,0.0025775592944228265,None,836.3379020841762,None,1,838.735838497325,None,None,839.2354113094461,None,,,,,,,,,,,,,,,,,,,,,,,,,,,,,,,,,,,,,,,,,,,,,,02_MI,2,27,F,2022-11-24_11h11.49.780,dynamic target,2022.1.3,120.03826668092148,
1,6,2,2,mix,0,135,135,135,,,,,,,None,840.2678381406936,None,839.2770441677626,840.2761644557877,839.7682903440787,None,1,[0.07482170037474134],[0.5831662960308677],840.2678381406936,None,[3 0 0 3 3 0 0 2],space,0,2.289422618225217,0.0031121855663513998,None,840.3511160443686,None,1,842.6408270382985,None,None,843.1403867012436,None,,,,,,,,,,,,,,,,,,,,,,,,,,,,,,,,,,,,,,,,,,,,,,02_MI,2,27,F,2022-11-24_11h11.49.780,dynamic target,2022.1.3,120.03826668092148,
0,7,3,2,mix,0,136,136,136,,,,,,,None,844.1728128910677,None,843.1987254278774,None,843.673240399658,None,1,[0.008639971058983065],[0.5174900082297427],844.1728128910677,None,[1 1 2 1 0 1 2 2],space,0,1.3456552316461057,0.0024624238226351736,None,844.1894709733533,None,0,845.5383157380247,None,None,846.0378872672995,None,,,,,,,,,,,,,,,,,,,,,,,,,,,,,,,,,,,,,,,,,,,,,,02_MI,2,27,F,2022-11-24_11h11.49.780,dynamic target,2022.1.3,120.03826668092148,
1,8,4,2,mix,0,137,137,137,,,,,,,None,847.070328209858,None,846.0795223705977,None,846.5707826582247,None,1,[0.00872495963858455],[0.5177353526191837],847.070328209858,None,[0 0 2 0 2 1 3 2],space,0,4.368051486247623,0.0023912258425298205,None,847.0870081005341,None,1,851.4665443258737,None,None,851.9661193829761,None,,,,,,,,,,,,,,,,,,,,,,,,,,,,,,,,,,,,,,,,,,,,,,02_MI,2,27,F,2022-11-24_11h11.49.780,dynamic target,2022.1.3,120.03826668092148,
0,1,2,2,mix,0,138,138,138,,,,,,,None,852.9902311240362,None,851.9994089284833,852.9985567977074,852.4906599154733,None,2,"[0.008694492034464929, 0.20855139050945581]","[0.03383251028071754, 0.7090042353179342]",852.9902311240362,None,[1 3 2 1 3 3 0 1],space,0,4.191834241327342,0.0020512715254881186,None,853.1983938120616,None,1,857.394751426044,None,None,857.894343160151,None,,,,,,,,,,,,,,,,,,,,,,,,,,,,,,,,,,,,,,,,,,,,,,02_MI,2,27,F,2022-11-24_11h11.49.780,dynamic target,2022.1.3,120.03826668092148,
0,2,2,2,mix,0,139,139,139,,,,,,,None,858.918460994732,None,857.9276445719879,858.9267834612865,858.4188830512244,None,38,"[0.008967417623352958, 0.024769520593963534, 0.049661553026453475, 0.116646023528574, 0.19159857424438087, 0.2661271441975259, 0.4996930789789076, 0.5837349177340911, 0.6002451519625538, 0.7586962559485073, 0.8081220859339737, 0.8247573976946114, 0.8580578473961396, 0.9084666584990373, 0.9326287512835734, 0.9580124346307457, 1.3158554052415639, 1.3493851637522312, 1.3826134533392178, 1.3993901989242659, 1.4738648893253412, 1.4919334613186948, 1.5240488815820754, 1.5493171087459814, 1.6241663903201697, 1.6654131118452824, 1.7076290238883303, 1.7412030406026133, 1.7657900762842473, 1.9152769697625445, 1.940673160863298, 1.9733632963507262, 2.0238179692155427, 2.0827785556816707, 2.1232392130250446, 2.1731990278590274, 2.2402280772757877, 2.3321542905118804]","[0.016274511187475582, 0.04165434599508444, 0.0999180261096626, 0.1332912773495991, 0.1994172028430512, 0.2748437653340261, 0.5086200869382083, 0.5915054395895822, 0.6087151458627886, 0.775237599204047, 0.8168916244876527, 0.8412637833835106, 0.8663540155980627, 0.9168725100748816, 0.9412671187842534, 1.3081307451475368, 1.3411319709075542, 1.3663145680689013, 1.3914644526444135, 1.4660007196766855, 1.4824628471624237, 1.5078885437319514, 1.5326157303916261, 1.6077767436609065, 1.6574145640279312, 1.6823505339525582, 1.7239882029434739, 1.7574983980452998, 1.906941995454872, 1.9234464568739895, 1.9655344049806445, 2.015443547378254, 2.065381874533614, 2.115297431163981, 2.164951607823241, 2.214966264344639, 2.322873858346611, 2.839717953372201]",858.918460994732,None,[3 3 3 2 1 1 2 3],space,0,3.284023117380457,0.0026378530792499078,None,861.2580849795995,None,1,864.5469508984092,None,None,865.0465166548752,None,,,,,,,,,,,,,,,,,,,,,,,,,,,,,,,,,,,,,,,,,,,,,,02_MI,2,27,F,2022-11-24_11h11.49.780,dynamic target,2022.1.3,120.03826668092148,
0,1,3,1,mix,0,140,140,140,,,,,,,None,866.0706328858978,None,865.0881908849906,866.0872858367975,865.5710825235897,None,11,"[0.008612069148057344, 0.2250199322274966, 0.3831827164663082, 0.45808780186189324, 0.5416139363310322, 0.5917434076122845, 0.6511561974634787, 0.6916906184796972, 0.7508221442394643, 0.8831631530574668, 0.9249348795055994]","[0.03374623885474648, 0.37515305962097045, 0.45054466454530484, 0.5338049290812705, 0.5838455632433579, 0.6419405490455574, 0.6833364014746621, 0.7254294809667954, 0.8671686231145941, 0.9088518331559499, 1.4326258648793555]",866.0706328858978,None,[2 1 1 2 0 1 0 2],space,0,1.2995333727762954,0.00330044328711665,None,867.0031718379278,None,1,868.3020455628584,None,None,868.8016161299984,None,,,,,,,,,,,,,,,,,,,,,,,,,,,,,,,,,,,,,,,,,,,,,,02_MI,2,27,F,2022-11-24_11h11.49.780,dynamic target,2022.1.3,120.03826668092148,
1,8,3,1,mix,0,141,141,141,,,,,,,None,869.8257358888491,None,868.8349220317978,None,869.3261621145925,None,1,[0.009050481933627452],[0.5175708275578472],869.8257358888491,None,[3 3 3 0 0 3 2 3],space,0,3.883057262264174,0.0026474744281586027,None,869.8423904433066,None,1,873.7307055078372,None,None,874.2302722264376,None,,,,,,,,,,,,,,,,,,,,,,,,,,,,,,,,,,,,,,,,,,,,,,02_MI,2,27,F,2022-11-24_11h11.49.780,dynamic target,2022.1.3,120.03826668092148,
0,1,4,2,mix,0,142,142,142,,,,,,,None,875.2627327324053,None,874.2802746959173,875.2793680441655,874.7631621652649,None,12,"[0.00872046967560891, 0.058709789978365734, 0.1352472975231649, 0.17552739422444574, 0.27579307173073175, 0.3258269709490378, 0.39154591339593026, 0.4581817703665365, 0.5174075853428803, 0.584511360567376, 0.6841471604511753, 0.7083307409143345]","[0.05016282528958982, 0.0922058737687621, 0.15842769203709395, 0.2665671605409443, 0.29158555335243364, 0.3835541005223604, 0.4334921069662414, 0.5084283013893582, 0.575420468970151, 0.6754222008125907, 0.7005044152365372, 1.216697465672496]",875.2627327324053,None,[2 3 1 1 2 1 3 1],space,0,1.9711009406209996,0.002652605814546405,None,875.9787801156226,None,1,877.9520683654546,None,None,878.4516376497481,None,,,,,,,,,,,,,,,,,,,,,,,,,,,,,,,,,,,,,,,,,,,,,,02_MI,2,27,F,2022-11-24_11h11.49.780,dynamic target,2022.1.3,120.03826668092148,
0,2,4,2,mix,0,143,143,143,,,,,,,None,879.4757397694593,None,878.4849650392262,None,878.9761842757657,None,1,[0.009278187184008857],[0.5177109785363427],879.4757397694593,None,[0 0 3 1 2 1 2 1],space,0,3.1285469343879413,0.0024162413496924273,None,879.4924135666147,None,1,882.6230435789362,None,None,883.1226115803834,None,,,,,,,,,,,,,,,,,,,,,,,,,,,,,,,,,,,,,,,,,,,,,,02_MI,2,27,F,2022-11-24_11h11.49.780,dynamic target,2022.1.3,120.03826668092148,
1,3,1,2,mix,0,144,144,144,,,,,,,None,884.146731980657,None,883.1559190857406,884.1550573336162,883.6471604513822,None,58,"[0.008645743868328282, 0.05012786772340405, 0.09182967903825556, 0.1917345559718342, 0.20877428508583762, 0.29203743602602117, 0.31699136580209597, 0.37592950245471, 0.3919063932580684, 0.4169097126232373, 0.44186652880352995, 0.4918250607911432, 0.5671576547770201, 0.7835366538106427, 0.8003663168133244, 0.8253516763275002, 0.9414928997657626, 0.9671854284033543, 0.9832123502196737, 1.0256979807354583, 1.0917430869008058, 1.1586153083353565, 1.208350945746588, 1.2330540790349005, 1.3251406480812875, 1.3668594571122412, 1.391460283393826, 1.4409499349917496, 1.4581057617128863, 1.5002841504960998, 1.5168662241276252, 1.5584759912076152, 1.5750798732292424, 1.5908229652613954, 1.6748064345015337, 1.7078602569672512, 1.7242441308171692, 1.7498628957823712, 1.791171514650614, 1.8407455134047268, 1.882260029133704, 1.8994055930825198, 1.9744059298295724, 2.0825219863854727, 2.099660173967095, 2.1242876193127813, 2.1498448076467866, 2.199123110287019, 2.241336777348806, 2.3161292929657975, 2.4407959934142127, 2.490706418658192, 2.5905734516204575, 2.6155655460788694, 2.6490911353384945, 2.690520983199349, 2.7986142692298017, 2.8900430587423216]","[0.041701169891894097, 0.08375383971997508, 0.17584425730592557, 0.20051339516248845, 0.2670017247874057, 0.3085970598444874, 0.34188756748608284, 0.383582643857153, 0.399749075228101, 0.4247501496120094, 0.45846720370900584, 0.5083933438227177, 0.5841191302561128, 0.7920614893978382, 0.8090601674243771, 0.8418987923928398, 0.9499571208566522, 0.9750800656561296, 1.000050031012961, 1.0334784446513368, 1.100026426637669, 1.1668858196076144, 1.2170031038472189, 1.241577952487205, 1.3327986001581849, 1.3749506905883209, 1.4167362076364043, 1.449987588460317, 1.4666119960256765, 1.508344595656581, 1.5412130468052965, 1.5665755631857792, 1.5833090127021023, 1.6665060970485683, 1.682969507380676, 1.7162224917628919, 1.7405500717432005, 1.7741000350861214, 1.8322896308163763, 1.8499502576278246, 1.8907864682787476, 1.9321499288344057, 2.016265531261979, 2.091105512199192, 2.1161290363966145, 2.132330425334203, 2.1579912035217603, 2.2154684987426663, 2.307190097964849, 2.423853119209525, 2.4655937366305807, 2.523780445956163, 2.5990296549207415, 2.6236789086569843, 2.673290109959453, 2.7903068761215764, 2.882502487118927, 3.3978446896248897]",884.146731980657,None,[2 0 3 3 0 3 1 0],space,0,1.1135334612927181,0.002728935179675318,None,887.0442424887733,None,0,888.1599299052682,None,None,888.6595145837196,None,,,,,,,,,,,,,,,,,,,,,,,,,,,,,,,,,,,,,,,,,,,,,,02_MI,2,27,F,2022-11-24_11h11.49.780,dynamic target,2022.1.3,120.03826668092148,
1,4,3,2,mix,0,145,145,145,,,,,,,None,889.6836314561651,None,888.7011865688537,None,889.1840605683137,None,1,[0.009783307986708678],[0.5173941154548629],889.6836314561651,None,[2 0 3 1 2 1 1 2],space,0,1.592570146212438,0.0026436258885951247,None,889.7002824827955,None,1,891.298907078939,None,None,891.7984609690748,None,,,,,,,,,,,,,,,,,,,,,,,,,,,,,,,,,,,,,,,,,,,,,,02_MI,2,27,F,2022-11-24_11h11.49.780,dynamic target,2022.1.3,120.03826668092148,
1,5,2,2,mix,0,146,146,146,,,,,,,None,892.8225781622323,None,891.831782265032,892.8309108915591,892.323033252022,None,5,"[0.008661779449084861, 0.28334005758688363, 0.5755346423070478, 0.6090560623156307, 1.0337119227110634]","[0.10904291313909198, 0.5672657345930929, 0.600111094505337, 0.6255916327618252, 1.5416710229992532]",892.8225781622323,None,[3 3 2 2 3 2 2 0],space,0,2.4054124657782268,0.0025871806433315214,None,893.8633640211592,None,1,896.2696270701131,None,None,896.7691864123462,None,,,,,,,,,,,,,,,,,,,,,,,,,,,,,,,,,,,,,,,,,,,,,,02_MI,2,27,F,2022-11-24_11h11.49.780,dynamic target,2022.1.3,120.03826668092148,
0,6,4,2,mix,0,147,147,147,,,,,,,None,897.8016408247931,None,896.8108266470304,None,897.3020737854808,None,1,[0.008675249337102287],[0.5174585784902774],897.8016408247931,None,[3 2 1 0 1 3 1 3],space,0,2.6264392176171896,0.002716748137572722,None,897.8182902478652,None,1,900.4493622007999,None,None,900.9489305229586,None,,,,,,,,,,,,,,,,,,,,,,,,,,,,,,,,,,,,,,,,,,,,,,02_MI,2,27,F,2022-11-24_11h11.49.780,dynamic target,2022.1.3,120.03826668092148,
0,7,2,2,mix,0,148,148,148,,,,,,,None,901.9730538096369,None,900.9822444425486,None,901.473483242497,None,1,[0.008654723793370067],[0.5175563955349389],901.9730538096369,None,[1 1 0 2 3 0 3 2],space,0,2.6306485576374143,0.0025127755475296,None,901.9896862349929,None,1,904.6207690921228,None,None,905.1203354900117,None,,,,,,,,,,,,,,,,,,,,,,,,,,,,,,,,,,,,,,,,,,,,,,02_MI,2,27,F,2022-11-24_11h11.49.780,dynamic target,2022.1.3,120.03826668092148,
0,4,3,0,mix,0,149,149,149,,,,,,,None,906.1527709804732,None,905.1703462979935,None,905.6532093932583,None,1,[0.007978984408964607],[0.5166247282772929],906.1527709804732,None,[1 2 1 2 3 0 2 0],space,0,1.762923820573178,0.00279756746658677,None,906.1694175171401,None,1,907.9345786779368,None,None,908.4341732984481,None,,,,,,,,,,,,,,,,,,,,,,,,,,,,,,,,,,,,,,,,,,,,,,02_MI,2,27,F,2022-11-24_11h11.49.780,dynamic target,2022.1.3,120.03826668092148,
0,5,1,2,mix,0,150,150,150,,,,,,,None,909.4665908290585,None,908.4757721613332,None,908.9670212240535,None,1,[0.008620086938663007],[0.5176763416811809],909.4665908290585,None,[3 0 1 0 1 3 3 2],space,0,2.5121558765972622,0.002415279214801558,None,909.483250835614,None,1,911.9977463594419,None,None,912.4973153230239,None,,,,,,,,,,,,,,,,,,,,,,,,,,,,,,,,,,,,,,,,,,,,,,02_MI,2,27,F,2022-11-24_11h11.49.780,dynamic target,2022.1.3,120.03826668092148,
0,6,4,2,mix,0,151,151,151,,,,,,,None,913.5297633212381,None,912.5473286966985,None,913.030198847619,None,1,[0.00950877883906287],[0.5175798074833438],913.5297633212381,None,[2 2 2 2 1 0 0 3],space,0,2.0334116806757265,0.002559278732405801,None,913.5464159514263,None,1,915.5779954625718,None,None,916.0775673125581,None,,,,,,,,,,,,,,,,,,,,,,,,,,,,,,,,,,,,,,,,,,,,,,02_MI,2,27,F,2022-11-24_11h11.49.780,dynamic target,2022.1.3,120.03826668092148,
0,7,1,2,mix,0,152,152,152,,,,,,,None,917.110017555754,None,916.1358681952211,None,916.6104405743818,None,1,[0.0086637037188666],[0.517515665159408],917.110017555754,None,[2 0 0 3 3 3 3 2],space,0,1.0608488805301022,0.0025964812803067616,None,917.1266640924214,None,1,918.1924147853188,None,None,918.691995935942,None,,,,,,,,,,,,,,,,,,,,,,,,,,,,,,,,,,,,,,,,,,,,,,02_MI,2,27,F,2022-11-24_11h11.49.780,dynamic target,2022.1.3,120.03826668092148,
1,8,4,2,mix,0,153,153,153,,,,,,,None,919.7161047905975,None,918.7252707287143,None,919.2165146600487,None,1,[0.008658251621454838],[0.5176291970728926],919.7161047905975,None,[2 3 3 3 3 2 1 3],space,0,1.2868687915902228,0.002486156482518709,None,919.7327490822836,None,0,921.0233186212222,None,None,921.5228779634554,None,,,,,,,,,,,,,,,,,,,,,,,,,,,,,,,,,,,,,,,,,,,,,,02_MI,2,27,F,2022-11-24_11h11.49.780,dynamic target,2022.1.3,120.03826668092148,
1,3,3,0,mix,0,154,154,154,,,,,,,None,922.5469993258639,None,921.5561877137943,None,922.0474428700354,None,1,[0.009459068538035353],[0.5178354146451056],922.5469993258639,None,[2 0 0 0 0 2 2 2],space,0,4.023315358148011,0.0024274662564494065,None,922.5636490696475,None,1,926.5935336198781,None,None,927.0930801336467,None,,,,,,,,,,,,,,,,,,,,,,,,,,,,,,,,,,,,,,,,,,,,,,02_MI,2,27,F,2022-11-24_11h11.49.780,dynamic target,2022.1.3,120.03826668092148,
0,4,2,2,mix,0,155,155,155,,,,,,,None,928.1171976475162,None,927.1263908461206,928.1255230004754,927.6176270803758,None,2,"[0.008563962404878112, 0.3582255795740821]","[0.19211620280020725, 0.8587858627752212]",928.1171976475162,None,[1 1 3 3 2 3 2 2],space,0,2.0475929071153587,0.0024611409762655967,None,928.4752234237503,None,0,930.5234590929122,None,None,931.0230357535729,None,,,,,,,,,,,,,,,,,,,,,,,,,,,,,,,,,,,,,,,,,,,,,,02_MI,2,27,F,2022-11-24_11h11.49.780,dynamic target,2022.1.3,120.03826668092148,
1,5,2,2,mix,0,156,156,156,,,,,,,None,932.0471462117862,None,931.056335882563,None,931.5475785310509,None,1,[0.00861527626420866],[0.5176840387598531],932.0471462117862,None,[0 3 2 2 0 0 2 0],space,0,2.522177152606673,0.002235680706689891,None,932.0638071804765,None,1,934.5866120216824,None,None,935.086204076501,None,,,,,,,,,,,,,,,,,,,,,,,,,,,,,,,,,,,,,,,,,,,,,,02_MI,2,27,F,2022-11-24_11h11.49.780,dynamic target,2022.1.3,120.03826668092148,
1,6,3,2,mix,0,157,157,157,,,,,,,None,936.1103138932913,None,935.1194939427196,936.1186373219807,935.6107423640165,None,2,"[0.008984415339455154, 0.3083004015948063]","[0.13372616230708445, 0.8087214959527955]",936.1103138932913,None,[2 0 0 1 0 2 0 2],space,0,2.712303981223613,0.0025871806433315214,None,936.4183849860779,None,1,939.1326973194282,None,None,939.6323015612879,None,,,,,,,,,,,,,,,,,,,,,,,,,,,,,,,,,,,,,,,,,,,,,,02_MI,2,27,F,2022-11-24_11h11.49.780,dynamic target,2022.1.3,120.03826668092148,
0,7,1,2,mix,0,158,158,158,,,,,,,None,940.6563805897626,None,939.6656116323388,None,940.1568315103013,None,1,[0.008692247052749735],[0.5176016158734456],940.6563805897626,None,[0 2 2 2 3 2 2 2],space,0,2.889001652151819,0.002565372253229725,None,940.6730518212248,None,1,943.5622340899772,None,None,944.0618040156942,None,,,,,,,,,,,,,,,,,,,,,,,,,,,,,,,,,,,,,,,,,,,,,,02_MI,2,27,F,2022-11-24_11h11.49.780,dynamic target,2022.1.3,120.03826668092148,
0,5,1,0,mix,0,159,159,159,,,,,,,None,945.0942407890016,None,944.1118116165594,None,944.5946763153825,None,1,[0.008703792671894917],[0.5169239522192584],945.0942407890016,None,[1 3 1 1 1 3 2 1],space,0,1.923517598896069,0.0031869113736320287,None,945.1109129825986,None,1,947.0342398140383,None,None,947.5338087776204,None,,,,,,,,,,,,,,,,,,,,,,,,,,,,,,,,,,,,,,,,,,,,,,02_MI,2,27,F,2022-11-24_11h11.49.780,dynamic target,2022.1.3,120.03826668092148,
0,6,2,2,mix,0,160,160,160,,,,,,,None,948.5662510030256,None,947.5837884765747,None,948.0666746630764,None,1,[0.008702189113137138],[0.5172930912945048],948.5662510030256,None,[0 2 0 1 2 0 1 2],space,0,2.3709430222193077,0.0028273936472942296,None,948.5829045953483,None,1,950.9558607803683,None,None,951.4554313475082,None,,,,,,,,,,,,,,,,,,,,,,,,,,,,,,,,,,,,,,,,,,,,,,02_MI,2,27,F,2022-11-24_11h11.49.780,dynamic target,2022.1.3,120.03826668092148,
1,7,2,2,mix,0,161,161,161,,,,,,,None,952.4878745350484,None,951.4970674129413,None,951.9882930637132,None,1,[0.008945929944729869],[0.5174739726480766],952.4878745350484,None,[1 3 0 3 3 3 0 3],space,0,1.185327002545364,0.002607064764106326,None,952.5045300516408,None,0,953.7034950510988,None,None,954.2030649768158,None,,,,,,,,,,,,,,,,,,,,,,,,,,,,,,,,,,,,,,,,,,,,,,02_MI,2,27,F,2022-11-24_11h11.49.780,dynamic target,2022.1.3,120.03826668092148,
1,7,4,0,mix,0,162,162,162,,,,,,,None,955.2271824906848,None,954.2447408104895,None,954.7275981329449,None,1,[0.009235532538241387],[0.5174957810386331],955.2271824906848,None,[0 2 0 1 2 2 1 2],space,0,1.1178390147988466,0.002708730347421806,None,955.243835120873,None,0,956.359549156432,None,None,956.8591107436469,None,,,,,,,,,,,,,,,,,,,,,,,,,,,,,,,,,,,,,,,,,,,,,,02_MI,2,27,F,2022-11-24_11h11.49.780,dynamic target,2022.1.3,120.03826668092148,
1,8,4,2,mix,0,163,163,163,,,,,,,None,957.8832135047815,None,956.9090663892298,None,957.3836682738593,None,1,[0.008720790387542365],[0.5175695447114776],957.8832135047815,None,[3 3 3 2 0 1 3 0],space,0,4.9096253336260816,0.002527848993850057,None,957.899867417816,None,1,962.8206452332952,None,None,963.3202138761653,None,,,,,,,,,,,,,,,,,,,,,,,,,,,,,,,,,,,,,,,,,,,,,,02_MI,2,27,F,2022-11-24_11h11.49.780,dynamic target,2022.1.3,120.03826668092148,
0,7,2,1,mix,0,164,164,164,,,,,,,None,964.3526634779378,None,963.3702092899894,None,963.853073988812,None,1,[0.008969983316546859],[0.5175733932505864],964.3526634779378,None,[1 3 0 1 2 0 2 2],space,0,4.9516468944270855,0.0025419603048248973,None,964.3693112974515,None,1,969.3233677542426,None,None,969.8229466598846,None,,,,,,,,,,,,,,,,,,,,,,,,,,,,,,,,,,,,,,,,,,,,,,02_MI,2,27,F,2022-11-24_11h11.49.780,dynamic target,2022.1.3,120.03826668092148,
1,8,2,2,mix,0,165,165,165,,,,,,,None,970.847051345289,None,969.8562554480886,None,970.3474987379996,None,1,[0.009240022501217027],[0.5176782659509627],970.847051345289,None,[0 0 0 1 3 0 0 1],space,0,4.1516263047410575,0.0019329289375491499,None,970.863710710421,None,1,975.0184713857884,None,None,975.5180419529283,None,,,,,,,,,,,,,,,,,,,,,,,,,,,,,,,,,,,,,,,,,,,,,,02_MI,2,27,F,2022-11-24_11h11.49.780,dynamic target,2022.1.3,120.03826668092148,
0,1,4,2,mix,0,166,166,166,,,,,,,None,976.5504838576217,None,975.5596789804963,None,976.0509174597328,None,1,[0.00924707815693182],[0.5173973225710142],976.5504838576217,None,[1 0 0 3 2 0 3 3],space,0,1.761247460931827,0.002680507725017378,None,976.5671374499448,None,1,978.3322848201415,None,None,978.8318544251465,None,,,,,,,,,,,,,,,,,,,,,,,,,,,,,,,,,,,,,,,,,,,,,,02_MI,2,27,F,2022-11-24_11h11.49.780,dynamic target,2022.1.3,120.03826668092148,
0,2,3,2,mix,0,167,167,167,,,,,,,None,979.8642950469939,None,978.8901819268735,None,979.3647276869701,None,1,[0.009484725467700628],[0.5175798074833438],979.8642950469939,None,[0 1 0 2 1 3 2 0],space,0,2.1597130482546163,0.0026535679485277797,None,979.8809351694285,None,1,982.0457514369482,None,None,982.5453213626652,None,,,,,,,,,,,,,,,,,,,,,,,,,,,,,,,,,,,,,,,,,,,,,,02_MI,2,27,F,2022-11-24_11h11.49.780,dynamic target,2022.1.3,120.03826668092148,
0,3,2,2,mix,0,168,168,168,,,,,,,None,983.5777780200929,None,982.5953312085117,None,983.0781853238514,None,1,[0.008639971058983065],[0.5174172066913343],983.5777780200929,None,[2 1 0 3 2 0 0 0],space,0,2.845017656944947,0.0025262454355470254,None,983.5944187839514,None,1,986.4419778157358,None,None,986.9415313851596,None,,,,,,,,,,,,,,,,,,,,,,,,,,,,,,,,,,,,,,,,,,,,,,02_MI,2,27,F,2022-11-24_11h11.49.780,dynamic target,2022.1.3,120.03826668092148,
0,4,1,2,mix,0,169,169,169,,,,,,,None,987.9739870804528,None,986.9831668091692,None,987.4744078540994,None,1,[0.008625859747553477],[0.5090174486363139],987.9739870804528,None,[3 3 0 2 3 1 0 2],space,0,1.7050058675854416,0.002664792855284759,None,987.9823050570449,None,1,989.6891672594484,None,None,990.1887381473002,None,,,,,,,,,,,,,,,,,,,,,,,,,,,,,,,,,,,,,,,,,,,,,,02_MI,2,27,F,2022-11-24_11h11.49.780,dynamic target,2022.1.3,120.03826668092148,
0,5,2,2,mix,0,170,170,170,,,,,,,None,991.2211704306451,None,990.2303697227703,None,990.7216146162395,None,1,[0.008620728361620422],[0.5176288763614139],991.2211704306451,None,[0 2 0 3 2 3 3 2],space,0,1.457681724991744,0.00218885681078973,None,991.2378227401214,None,1,992.6949131288434,None,None,993.1944750367693,None,,,,,,,,,,,,,,,,,,,,,,,,,,,,,,,,,,,,,,,,,,,,,,02_MI,2,27,F,2022-11-24_11h11.49.780,dynamic target,2022.1.3,120.03826668092148,
0,6,4,2,mix,0,171,171,171,,,,,,,None,994.2186021719872,None,993.2277937670337,994.2269201485792,993.7190306427124,None,3,"[0.008943364251990715, 0.09183064117314643, 0.10937709464769796]","[0.08343505236871351, 0.10004053794864376, 0.6168233770549705]",994.2186021719872,None,[0 0 3 0 2 0 2 0],space,0,1.0805091442962294,0.0031054506221153133,None,994.3351526234528,None,1,995.4175678128686,None,None,995.9171377385851,None,,,,,,,,,,,,,,,,,,,,,,,,,,,,,,,,,,,,,,,,,,,,,,02_MI,2,27,F,2022-11-24_11h11.49.780,dynamic target,2022.1.3,120.03826668092148,
