tar_letter,tar_pos,tar_ori,tar_pos_type,block,trials.thisRepN,trials.thisTrialN,trials.thisN,trials.thisIndex,instructions_key.keys,instructions_key.rt,instructions_key.started,instructions_key.stopped,instruction_text.started,instruction_text.stopped,fix_key.keys,fix_key.started,fix_key.stopped,fixcross.started,fixcross.stopped,roi.started,roi.stopped,roi.numLooks,roi.timesOn,roi.timesOff,RedFixCross.started,RedFixCross.stopped,distori,search_resp.keys,search_resp.corr,search_resp.rt,search_resp.started,search_resp.stopped,fixcross_shape.started,fixcross_shape.stopped,correct,feedback_text.started,feedback_text.stopped,break_key.keys,break_key.started,break_key.stopped,break_key.rt,text_q1.started,text_q1.stopped,key_resp1.keys,key_resp1.rt,key_resp1.started,key_resp1.stopped,text_q2.started,text_q2.stopped,key_resp_2.keys,key_resp_2.rt,key_resp_2.started,key_resp_2.stopped,image.started,image.stopped,text_q1_2.started,text_q1_2.stopped,slider.response,slider.rt,slider.started,slider.stopped,mouse.x,mouse.y,mouse.leftButton,mouse.midButton,mouse.rightButton,mouse.time,mouse.started,mouse.stopped,key_resp_3.keys,key_resp_3.rt,key_resp_3.started,key_resp_3.stopped,text_q4.started,text_q4.stopped,key_resp1_3.keys,key_resp1_3.rt,key_resp1_3.started,key_resp1_3.stopped,finish_text.started,finish_text.stopped,key_resp.keys,key_resp.rt,key_resp.started,key_resp.stopped,participant,group,age,gender,date,expName,psychopyVersion,frameRate,
,,,,,,,,,space,13.57954000038444,51.1363717124641,None,,,,,,,,,,,,,,,,,,,,,,,,,,,,,,,,,,,,,,,,,,,,,,,,,,,,,,,,,,,,,,,,,,,,,,,,,,03_SY,3,32,F,2022-11-24_14h20.32.429,dynamic target,2022.1.3,120.068774306666,
1,8,2,0,L,0,0,0,0,,,,,51.1363717124641,None,None,261.1554704101836,None,260.18244161605253,None,260.6558866938667,None,1,[0.008941119271185016],[0.517142356831755],261.1554704101836,None,[0 3 2 3 2 0 3 2],space,0,4.035360050376767,0.006936222647709656,None,261.1804522418697,None,1,265.21863199816653,None,None,265.7182077929063,None,,,,,,,,,,,,,,,,,,,,,,,,,,,,,,,,,,,,,,,,,,,,,,03_SY,3,32,F,2022-11-24_14h20.32.429,dynamic target,2022.1.3,120.068774306666,
1,7,2,2,L,0,1,1,1,,,,,,,None,266.7506460735585,None,265.7681736050472,266.76729196880297,266.2510835242101,None,3,"[0.017021448551531648, 0.07515812686324352, 0.11678425023637828]","[0.0668189833049837, 0.10013258218350529, 0.617111376090179]",266.7506460735585,None,[2 3 0 2 1 0 3 1],space,0,4.776820301698535,0.002653022740560118,None,266.86720646708454,None,1,271.6464362845418,None,None,272.1460098343012,None,,,,,,,,,,,,,,,,,,,,,,,,,,,,,,,,,,,,,,,,,,,,,,03_SY,3,32,F,2022-11-24_14h20.32.429,dynamic target,2022.1.3,120.068774306666,
1,6,4,2,L,0,2,2,2,,,,,,,None,273.1784452285483,None,272.1959641008234,None,272.6788906969887,None,1,[0.008758313646467286],[0.5169496091493784],273.1784452285483,None,[1 3 0 3 2 1 0 1],space,0,6.4479247619638045,0.0029038192278676433,None,273.1950933687731,None,1,279.64788237323955,None,None,280.14745624370863,None,,,,,,,,,,,,,,,,,,,,,,,,,,,,,,,,,,,,,,,,,,,,,,03_SY,3,32,F,2022-11-24_14h20.32.429,dynamic target,2022.1.3,120.068774306666,
1,7,3,1,L,0,3,3,3,,,,,,,None,281.17988329945547,None,280.1974111516556,281.1965683215167,280.6720040563596,None,3,"[0.17513484320079442, 0.20005830537229485, 0.2917571340694849]","[0.18350830290364684, 0.25915134573915566, 0.800538538953333]",281.17988329945547,None,[1 0 0 0 1 2 1 2],space,0,2.267010695359204,0.0025346801503474126,None,281.47132132546176,None,1,283.7360363763946,None,None,284.23560319120753,None,,,,,,,,,,,,,,,,,,,,,,,,,,,,,,,,,,,,,,,,,,,,,,03_SY,3,32,F,2022-11-24_14h20.32.429,dynamic target,2022.1.3,120.068774306666,
1,6,2,2,L,0,4,4,4,,,,,,,None,285.2680421132827,None,284.2855709276191,285.2846825564302,284.7684747532603,None,2,"[0.008709565479875891, 0.7669542594667291]","[0.22511742855931516, 1.2750602456781053]",285.2680421132827,None,[3 3 2 3 1 3 3 1],space,0,2.352480983672649,0.0026357043116149725,None,286.04237851283324,None,1,288.3986756534323,None,None,288.89827453940944,None,,,,,,,,,,,,,,,,,,,,,,,,,,,,,,,,,,,,,,,,,,,,,,03_SY,3,32,F,2022-11-24_14h20.32.429,dynamic target,2022.1.3,120.068774306666,
1,5,3,2,L,0,5,5,5,,,,,,,None,289.9306977466149,None,288.9565390854459,None,289.43111435100946,None,1,[0.008650554542327882],[0.5172940534303052],289.9306977466149,None,[0 0 3 1 2 1 1 3],space,0,2.6548398817831185,0.002153354034817312,None,289.94735775316985,None,1,292.60338684299677,None,None,293.1029652034302,None,,,,,,,,,,,,,,,,,,,,,,,,,,,,,,,,,,,,,,,,,,,,,,03_SY,3,32,F,2022-11-24_14h20.32.429,dynamic target,2022.1.3,120.068774306666,
1,4,1,2,L,0,6,6,6,,,,,,,None,294.13540091838877,None,293.16131730373854,None,293.63584446256027,None,1,[0.008645423156849574],[0.5174072646314016],294.13540091838877,None,[1 3 2 1 2 3 1 2],space,0,6.114489228526509,0.002404150522124837,None,294.1520586799634,None,1,300.27181528549954,None,None,300.7713702339841,None,,,,,,,,,,,,,,,,,,,,,,,,,,,,,,,,,,,,,,,,,,,,,,03_SY,3,32,F,2022-11-24_14h20.32.429,dynamic target,2022.1.3,120.068774306666,
1,3,1,2,L,0,7,7,7,,,,,,,None,301.8038088353478,None,300.8296953945155,None,301.3042260811653,None,1,[0.008603089223470306],[0.517559923362569],301.8038088353478,None,[3 2 1 2 3 0 2 2],space,0,3.7407771262169263,0.0018496401298762066,None,301.8204605034007,None,1,305.5589102347403,None,None,306.05847833240097,None,,,,,,,,,,,,,,,,,,,,,,,,,,,,,,,,,,,,,,,,,,,,,,03_SY,3,32,F,2022-11-24_14h20.32.429,dynamic target,2022.1.3,120.068774306666,
1,2,2,2,L,0,8,8,8,,,,,,,None,307.090931045077,None,306.1167967579895,None,306.59135117729966,None,1,[0.008759596494201105],[0.5170628203504748],307.090931045077,None,[0 3 1 1 2 2 1 3],space,0,2.8539985910629184,0.002720692891671206,None,307.1075631497206,None,1,309.9634504208698,None,None,310.4630217256452,None,,,,,,,,,,,,,,,,,,,,,,,,,,,,,,,,,,,,,,,,,,,,,,03_SY,3,32,F,2022-11-24_14h20.32.429,dynamic target,2022.1.3,120.068774306666,
1,1,1,2,L,0,9,9,9,,,,,,,None,311.49546962764725,None,310.52133694411714,311.5204421586968,310.9958814213678,None,3,"[0.008661779449539608, 0.28347956714242173, 1.1916739414755284]","[0.13344938817863294, 0.6592281882421958, 1.6991199031708675]",311.49546962764725,None,[2 1 3 0 3 0 3 0],space,0,7.922523760189506,0.003201118899596622,None,312.6944339856818,None,1,320.6209618398061,None,None,321.12050267697833,None,,,,,,,,,,,,,,,,,,,,,,,,,,,,,,,,,,,,,,,,,,,,,,03_SY,3,32,F,2022-11-24_14h20.32.429,dynamic target,2022.1.3,120.068774306666,
1,8,4,2,L,0,10,10,10,,,,,,,None,322.152962541524,None,321.1788355345907,None,321.64505081034076,None,1,[0.00866049660180579],[0.51726037870867],322.152962541524,None,[3 2 3 3 0 0 2 2],space,0,3.7181544492123066,0.0017871013642434264,None,322.16128010119064,None,1,325.8830746366493,None,None,326.3826488278299,None,,,,,,,,,,,,,,,,,,,,,,,,,,,,,,,,,,,,,,,,,,,,,,03_SY,3,32,F,2022-11-24_14h20.32.429,dynamic target,2022.1.3,120.068774306666,
1,7,3,2,L,0,11,11,11,,,,,,,None,327.4151018612174,None,326.43260084937174,None,326.9155101271099,None,1,[0.008673004356751335],[0.5169114444670413],327.4151018612174,None,[2 0 2 2 0 3 3 1],space,0,2.6086971766599163,0.0029641130113304825,None,327.4317487185963,None,1,330.0378365948636,None,None,330.53740469252426,None,,,,,,,,,,,,,,,,,,,,,,,,,,,,,,,,,,,,,,,,,,,,,,03_SY,3,32,F,2022-11-24_14h20.32.429,dynamic target,2022.1.3,120.068774306666,
1,6,1,2,L,0,12,12,12,,,,,,,None,331.5698602916036,None,330.5957468507713,None,331.07029357300235,None,1,[0.00864830956197693],[0.5171439603909675],331.5698602916036,None,[0 3 3 3 0 3 3 0],space,0,2.2610185194407677,0.0022251934387895744,None,331.5864968862097,None,1,333.8512196342217,None,None,334.3507822797836,None,,,,,,,,,,,,,,,,,,,,,,,,,,,,,,,,,,,,,,,,,,,,,,03_SY,3,32,F,2022-11-24_14h20.32.429,dynamic target,2022.1.3,120.068774306666,
1,5,3,2,L,0,13,13,13,,,,,,,None,335.3832349924596,None,334.40911994806993,None,334.8836512761427,None,1,[0.025932741642463952],[0.533818078258264],335.3832349924596,None,[1 0 0 0 1 2 0 2],space,0,3.4077986068405153,0.002621272289616172,None,335.416540894259,None,1,338.8219251933715,None,None,339.3215218343665,None,,,,,,,,,,,,,,,,,,,,,,,,,,,,,,,,,,,,,,,,,,,,,,03_SY,3,32,F,2022-11-24_14h20.32.429,dynamic target,2022.1.3,120.068774306666,
1,4,3,2,L,0,14,14,14,,,,,,,None,340.3539572286154,None,339.3798502020145,None,339.85437383300996,None,1,[0.008805137542367447],[0.5170333148817008],340.3539572286154,None,[1 3 2 3 0 2 0 3],space,0,2.1019930209422455,0.0028650131207541563,None,340.37060953809123,None,1,342.47712780935217,None,None,342.9766959070128,None,,,,,,,,,,,,,,,,,,,,,,,,,,,,,,,,,,,,,,,,,,,,,,03_SY,3,32,F,2022-11-24_14h20.32.429,dynamic target,2022.1.3,120.068774306666,
1,3,4,2,L,0,15,15,15,,,,,,,None,344.0091377154931,None,343.0266588327504,None,343.5095735625855,None,1,[0.009093136579394923],[0.5176263106677652],344.0091377154931,None,[1 3 2 1 1 0 2 0],space,0,4.3328986528304085,0.002230004110970185,None,344.0257961184907,None,1,348.36372450101953,None,None,348.86329324010313,None,,,,,,,,,,,,,,,,,,,,,,,,,,,,,,,,,,,,,,,,,,,,,,03_SY,3,32,F,2022-11-24_14h20.32.429,dynamic target,2022.1.3,120.068774306666,
1,2,1,2,L,0,16,16,16,,,,,,,None,349.89574178352814,None,348.921604930747,349.9207043725164,349.39617025425287,None,3,"[0.008799044024272007, 0.20840097676045843, 0.25855289785431523]","[0.017208423427291564, 0.21671414267802902, 0.758671240442709]",349.89574178352814,None,[3 0 3 2 3 2 2 3],space,0,3.1489663691645546,0.002465406441842788,None,350.15386043784747,None,1,353.3011430803581,None,None,353.80071053659395,None,,,,,,,,,,,,,,,,,,,,,,,,,,,,,,,,,,,,,,,,,,,,,,03_SY,3,32,F,2022-11-24_14h20.32.429,dynamic target,2022.1.3,120.068774306666,
1,1,2,2,L,0,17,17,17,,,,,,,None,354.83314977938244,None,353.8506728209086,354.84979759889575,354.3335888335896,None,1,[0.10020923225965817],[0.6005062112217274],354.83314977938244,None,[2 0 3 1 3 3 2 0],space,0,3.969386783614027,0.002663285511516733,None,354.933069729761,None,1,358.9046373617475,None,None,359.40422021214346,None,,,,,,,,,,,,,,,,,,,,,,,,,,,,,,,,,,,,,,,,,,,,,,03_SY,3,32,F,2022-11-24_14h20.32.429,dynamic target,2022.1.3,120.068774306666,
1,8,4,2,L,0,18,18,18,,,,,,,None,360.4366485507362,None,359.45417800649375,None,359.93707990786424,None,1,[0.009240663925083936],[0.5173918704731477],360.4366485507362,None,[1 0 0 3 1 0 0 0],space,0,4.145347779949589,0.002420186103336164,None,360.45330535017456,None,1,364.5997474075266,None,None,365.09930363885707,None,,,,,,,,,,,,,,,,,,,,,,,,,,,,,,,,,,,,,,,,,,,,,,03_SY,3,32,F,2022-11-24_14h20.32.429,dynamic target,2022.1.3,120.068774306666,
1,7,1,2,L,0,19,19,19,,,,,,,None,366.1317502580114,None,365.15760025605596,366.15672599617756,365.63218802937445,None,2,"[0.008605334203821258, 0.7674994692224573]","[0.41654538422153564, 1.2748585180688679]",366.1317502580114,None,[1 2 2 1 1 1 3 0],space,0,1.5006372446368914,0.002682528209334123,None,366.9061110316452,None,0,368.41313076759616,None,None,368.91268860248584,None,,,,,,,,,,,,,,,,,,,,,,,,,,,,,,,,,,,,,,,,,,,,,,03_SY,3,32,F,2022-11-24_14h20.32.429,dynamic target,2022.1.3,120.068774306666,
1,6,2,2,L,0,20,20,20,,,,,,,None,369.9368204521634,None,368.95438711047063,None,369.4372447536389,None,1,[0.008605654915299965],[0.5168838632671395],369.9368204521634,None,[3 2 1 3 0 3 3 3],space,0,4.10115949143983,0.0031408251143147936,None,369.9534701959474,None,1,374.0582678493647,None,None,374.5578186285982,None,,,,,,,,,,,,,,,,,,,,,,,,,,,,,,,,,,,,,,,,,,,,,,03_SY,3,32,F,2022-11-24_14h20.32.429,dynamic target,2022.1.3,120.068774306666,
1,5,3,2,L,0,21,21,21,,,,,,,None,375.5902870561422,None,374.6078024005892,375.6069233300368,375.09071328188656,None,1,[0.05862576353501936],[0.5590497442972264],375.5902870561422,None,[2 3 2 0 0 1 3 3],space,0,3.4772204856581084,0.002375927899265662,None,375.6485603576057,None,1,379.128905225225,None,None,379.6284871134865,None,,,,,,,,,,,,,,,,,,,,,,,,,,,,,,,,,,,,,,,,,,,,,,03_SY,3,32,F,2022-11-24_14h20.32.429,dynamic target,2022.1.3,120.068774306666,
1,4,4,2,L,0,22,22,22,,,,,,,None,380.6609027198263,None,379.6784320793722,None,380.15302722905653,None,1,[0.009483442621785798],[0.5164653346018895],380.6609027198263,None,[0 2 3 1 3 2 0 0],space,0,2.7448148855201,0.0028060021832061466,None,380.6692375979201,None,1,383.41687732074934,None,None,383.91644862552477,None,,,,,,,,,,,,,,,,,,,,,,,,,,,,,,,,,,,,,,,,,,,,,,03_SY,3,32,F,2022-11-24_14h20.32.429,dynamic target,2022.1.3,120.068774306666,
1,3,1,2,L,0,23,23,23,,,,,,,None,384.94889267898725,None,383.95808427403244,384.95721963550386,384.4493153769017,None,3,"[0.12507047637882351, 0.15925576944209752, 0.18333640147466213]","[0.1333983950298716, 0.16671327675612702, 0.6834419155966316]",384.94889267898725,None,[1 2 2 3 1 0 3 1],space,0,2.905216557583117,0.002736407761403825,None,385.1320879673476,None,1,388.0378984922063,None,None,388.53746819342433,None,,,,,,,,,,,,,,,,,,,,,,,,,,,,,,,,,,,,,,,,,,,,,,03_SY,3,32,F,2022-11-24_14h20.32.429,dynamic target,2022.1.3,120.068774306666,
1,4,4,1,L,0,24,24,24,,,,,,,None,389.5699003805548,None,388.5790922963133,389.57822733707326,389.06200349832216,None,2,"[0.09183256544383767, 0.10843612675307668]","[0.10003316158145026, 0.6089120627984812]",389.5699003805548,None,[0 1 2 0 2 1 0 0],space,0,5.2308116540316405,0.0024904219480959,None,389.6698164823956,None,1,394.89866057998734,None,None,395.3982180941637,None,,,,,,,,,,,,,,,,,,,,,,,,,,,,,,,,,,,,,,,,,,,,,,03_SY,3,32,F,2022-11-24_14h20.32.429,dynamic target,2022.1.3,120.068774306666,
1,3,2,2,L,0,25,25,25,,,,,,,None,396.42234522938253,None,395.4398957558933,None,395.9227768110104,None,1,[0.008668514394230442],[0.5089693418940442],396.42234522938253,None,[2 3 3 0 2 0 1 1],space,0,4.277662490414514,0.002716844352107728,None,396.4306682411461,None,1,400.71032107723113,None,None,401.2098837227948,None,,,,,,,,,,,,,,,,,,,,,,,,,,,,,,,,,,,,,,,,,,,,,,03_SY,3,32,F,2022-11-24_14h20.32.429,dynamic target,2022.1.3,120.068774306666,
1,2,4,2,L,0,26,26,26,,,,,,,None,402.2423354733346,None,401.26822972958144,None,401.7427530398636,None,1,[0.009492101833529887],[0.5173078440275276],402.2423354733346,None,[0 1 2 1 0 3 2 3],space,0,4.192796422794345,0.0022004986440151697,None,402.25899708344696,None,1,406.45537618510934,None,None,406.9549523005606,None,,,,,,,,,,,,,,,,,,,,,,,,,,,,,,,,,,,,,,,,,,,,,,03_SY,3,32,F,2022-11-24_14h20.32.429,dynamic target,2022.1.3,120.068774306666,
1,3,4,1,L,0,27,27,27,,,,,,,None,407.987380959863,None,407.0049097741994,None,407.48782706972816,None,1,[0.008714055444215774],[0.5171641652232211],407.987380959863,None,[0 0 3 2 1 0 0 1],space,0,3.856146717494994,0.0027027330397686455,None,408.0040278172419,None,1,411.8590549398232,None,None,412.3586297724285,None,,,,,,,,,,,,,,,,,,,,,,,,,,,,,,,,,,,,,,,,,,,,,,03_SY,3,32,F,2022-11-24_14h20.32.429,dynamic target,2022.1.3,120.068774306666,
1,2,4,2,L,0,28,28,28,,,,,,,None,413.3910686945037,None,412.4002561202997,413.3993815397098,412.8914862610345,None,1,[0.09976344310962304],[0.6001146223334217],413.3910686945037,None,[1 3 2 3 2 1 1 0],space,0,4.640693612911491,0.002537887268772465,None,413.49098511705597,None,1,418.12866661577937,None,None,418.62822477138053,None,,,,,,,,,,,,,,,,,,,,,,,,,,,,,,,,,,,,,,,,,,,,,,03_SY,3,32,F,2022-11-24_14h20.32.429,dynamic target,2022.1.3,120.068774306666,
1,1,3,2,L,0,29,29,29,,,,,,,None,419.66067106982337,None,418.67818865925074,None,419.16108735350645,None,1,[0.008661458738060901],[0.5172507573606708],419.66067106982337,None,[0 2 1 0 1 3 3 2],space,0,3.813753772639757,0.002159447556550731,None,419.67732594499284,None,1,423.49073143416354,None,None,423.9902764405886,None,,,,,,,,,,,,,,,,,,,,,,,,,,,,,,,,,,,,,,,,,,,,,,03_SY,3,32,F,2022-11-24_14h20.32.429,dynamic target,2022.1.3,120.068774306666,
1,8,2,2,L,0,30,30,30,,,,,,,None,425.0227118348357,None,424.0485910176358,None,424.5231573032761,None,1,[0.008748050875510671],[0.5175268900657102],425.0227118348357,None,[2 2 3 2 0 0 0 1],space,0,3.8589054788571957,0.002424996777335764,None,425.03936061648346,None,1,428.9027159784291,None,None,429.4022831139553,None,,,,,,,,,,,,,,,,,,,,,,,,,,,,,,,,,,,,,,,,,,,,,,03_SY,3,32,F,2022-11-24_14h20.32.429,dynamic target,2022.1.3,120.068774306666,
1,7,1,2,L,0,31,31,31,,,,,,,None,430.4347024726212,None,429.4522431532878,430.4513781940459,429.9351495446208,None,1,[0.8254834888030018],[1.332839651244285],430.4347024726212,None,[1 1 3 2 0 3 1 1],space,0,1.6631617069160711,0.002815944242684054,None,431.26734424479764,None,1,432.9325642882468,None,None,433.43214681793125,None,,,,,,,,,,,,,,,,,,,,,,,,,,,,,,,,,,,,,,,,,,,,,,03_SY,3,32,F,2022-11-24_14h20.32.429,dynamic target,2022.1.3,120.068774306666,
1,6,1,2,L,0,32,32,32,,,,,,,None,434.46458028790767,None,433.49047518557927,434.48953806622376,433.96502383207917,None,3,"[0.050229533306264784, 0.18345666833192809, 0.20002302709508513]","[0.06683501888619503, 0.19159761210903525, 0.7089266231050715]",434.46458028790767,None,[1 0 3 2 1 2 3 0],space,0,1.5056406666299154,0.002474065655405866,None,434.6727449002028,None,1,436.17978163387124,None,None,436.67934716583824,None,,,,,,,,,,,,,,,,,,,,,,,,,,,,,,,,,,,,,,,,,,,,,,03_SY,3,32,F,2022-11-24_14h20.32.429,dynamic target,2022.1.3,120.068774306666,
1,7,3,1,L,0,33,33,33,,,,,,,None,437.70347131843846,None,436.7293719889185,437.72843422814003,437.20389337493,None,2,"[0.008670759374581394, 0.6000889654042112]","[0.3670028152064333, 1.1085721084800753]",437.70347131843846,None,[1 1 1 3 2 2 2 3],space,0,1.7067146657045669,0.002738332032095059,None,438.3112945652847,None,1,440.0181436185121,None,None,440.51771203688423,None,,,,,,,,,,,,,,,,,,,,,,,,,,,,,,,,,,,,,,,,,,,,,,03_SY,3,32,F,2022-11-24_14h20.32.429,dynamic target,2022.1.3,120.068774306666,
1,6,2,2,L,0,34,34,34,,,,,,,None,441.5501445447262,None,440.57604168737817,441.5751202828924,441.0505948238424,None,5,"[0.24167448668413272, 0.27508429904992227, 0.317380388996753, 0.3332912132063939, 0.3495391053293133]","[0.24992639668380434, 0.28288304352827254, 0.32495591818769753, 0.3414841122666985, 0.8502732142296736]",441.5501445447262,None,[3 2 3 2 2 2 2 3],space,0,5.909403447789373,0.0023996605596039444,None,441.89985683433224,None,1,447.8114356783972,None,None,448.31100024822973,None,,,,,,,,,,,,,,,,,,,,,,,,,,,,,,,,,,,,,,,,,,,,,,03_SY,3,32,F,2022-11-24_14h20.32.429,dynamic target,2022.1.3,120.068774306666,
1,5,3,2,L,0,35,35,35,,,,,,,None,449.3517590711672,None,448.3693019968141,None,448.85220101177947,None,1,[0.008685191396580194],[0.5176218207052443],449.3517590711672,None,[2 2 1 1 1 2 2 0],space,0,3.9292182945573586,0.0023428946024068864,None,449.36843479259187,None,1,453.29835898277815,None,None,453.79794375744297,None,,,,,,,,,,,,,,,,,,,,,,,,,,,,,,,,,,,,,,,,,,,,,,03_SY,3,32,F,2022-11-24_14h20.32.429,dynamic target,2022.1.3,120.068774306666,
1,4,1,2,L,0,36,36,36,,,,,,,None,454.8220614958118,None,453.83125020445186,None,454.32249317365313,None,1,[0.008657610198497423],[0.5175749968093442],454.8220614958118,None,[0 1 1 1 1 0 2 1],space,0,2.4424065978200815,0.0023630994346603984,None,454.838715408845,None,1,457.2866058640193,None,None,457.7861617746383,None,,,,,,,,,,,,,,,,,,,,,,,,,,,,,,,,,,,,,,,,,,,,,,03_SY,3,32,F,2022-11-24_14h20.32.429,dynamic target,2022.1.3,120.068774306666,
1,2,2,0,L,0,37,37,37,,,,,,,None,458.81860614881043,None,457.8445157992155,458.84358637693913,458.31905899361846,None,8,"[0.0747857806745742, 0.10812984715630591, 0.1330796076799743, 0.15019117619704048, 0.16640763858231367, 0.19971065397658094, 0.25868695531244157, 0.3495535373531311]","[0.09976825378362264, 0.12473501202475745, 0.1414530673828267, 0.15859125496535853, 0.1750014271674445, 0.24955052266523126, 0.332847348325231, 0.8501260075972823]",458.81860614881043,None,[1 2 0 2 3 3 3 0],space,0,3.0886812437056506,0.002503571124179871,None,459.168322286956,None,1,462.2573271380388,None,None,462.75689523569946,None,,,,,,,,,,,,,,,,,,,,,,,,,,,,,,,,,,,,,,,,,,,,,,03_SY,3,32,F,2022-11-24_14h20.32.429,dynamic target,2022.1.3,120.068774306666,
1,2,4,0,L,0,38,38,38,,,,,,,None,463.7893274228318,None,462.80685623716636,463.80598037373056,463.2897943789503,None,1,[0.44185402104994864],[0.9418726223248086],463.7893274228318,None,[0 3 0 3 1 1 3 1],space,0,4.330128345851335,0.0027556504574022256,None,464.230636234126,None,1,468.5602334908872,None,None,469.0598198691112,None,,,,,,,,,,,,,,,,,,,,,,,,,,,,,,,,,,,,,,,,,,,,,,03_SY,3,32,F,2022-11-24_14h20.32.429,dynamic target,2022.1.3,120.068774306666,
1,1,4,2,L,0,39,39,39,,,,,,,None,470.08392125118553,None,469.09311092196185,470.0922472455677,469.5843503633332,None,2,"[0.24167256241526047, 0.26702962669696717]","[0.2503096470682067, 0.7752475412635249]",470.08392125118553,None,[0 1 2 1 1 2 0 0],space,0,2.490456254241508,0.002775855291474727,None,470.3586870835952,None,1,472.8482081521033,None,None,473.34778170186274,None,,,,,,,,,,,,,,,,,,,,,,,,,,,,,,,,,,,,,,,,,,,,,,03_SY,3,32,F,2022-11-24_14h20.32.429,dynamic target,2022.1.3,120.068774306666,
1,2,1,1,L,0,40,40,40,,,,,,,None,474.3802238310527,None,473.3977369305194,474.39687325412524,473.8806478118149,None,4,"[0.025297411921201274, 0.050258397353900364, 0.07527422447128629, 0.10021949503425276]","[0.0338427730530384, 0.05845001356647117, 0.09228027886638301, 0.6005074940694612]",474.3802238310527,None,[0 0 2 1 2 1 1 3],space,0,4.111756444806815,0.00259625678336306,None,474.48014570570194,None,1,478.59325973215346,None,None,479.0928470725119,None,,,,,,,,,,,,,,,,,,,,,,,,,,,,,,,,,,,,,,,,,,,,,,03_SY,3,32,F,2022-11-24_14h20.32.429,dynamic target,2022.1.3,120.068774306666,
1,3,3,1,L,0,41,41,41,,,,,,,None,480.1252484713277,None,479.1511610081361,None,479.62569618475027,None,1,[0.008142547334500705],[0.5160830463501043],480.1252484713277,None,[0 3 0 1 1 2 2 2],space,0,3.314289040334188,0.0030170304289640626,None,480.1419116849993,None,1,483.45574821058835,None,None,483.95530861116987,None,,,,,,,,,,,,,,,,,,,,,,,,,,,,,,,,,,,,,,,,,,,,,,03_SY,3,32,F,2022-11-24_14h20.32.429,dynamic target,2022.1.3,120.068774306666,
1,2,1,2,L,0,42,42,42,,,,,,,None,484.98774143972514,None,484.0136401859345,None,484.48819107741656,None,1,[0.00877819776906108],[0.5172504366491921],484.98774143972514,None,[1 1 0 0 1 3 1 2],space,0,2.531384829837407,0.002765271807220415,None,485.00441010549366,None,1,487.53556114591447,None,None,488.03514848627293,None,,,,,,,,,,,,,,,,,,,,,,,,,,,,,,,,,,,,,,,,,,,,,,03_SY,3,32,F,2022-11-24_14h20.32.429,dynamic target,2022.1.3,120.068774306666,
1,1,3,2,L,0,43,43,43,,,,,,,None,489.05924313340256,None,488.07681107455574,None,488.559677697649,None,1,[0.009245153887604829],[0.51744735358443],489.05924313340256,None,[3 3 3 0 0 3 0 0],space,0,5.370471943453595,0.0018416223392705433,None,489.07590121568865,None,1,494.44628753849247,None,None,494.9458463355166,None,,,,,,,,,,,,,,,,,,,,,,,,,,,,,,,,,,,,,,,,,,,,,,03_SY,3,32,F,2022-11-24_14h20.32.429,dynamic target,2022.1.3,120.068774306666,
1,8,3,2,L,0,44,44,44,,,,,,,None,495.9782926339594,None,494.9957945085189,495.9949362842217,495.47872142539563,None,1,[0.13347568653261987],[0.6334949292286183],495.9782926339594,None,[2 0 0 2 1 0 1 1],space,0,7.008244203565482,0.003011257618709351,None,496.1114957156133,None,1,503.1221279472593,None,None,503.6217386995648,None,,,,,,,,,,,,,,,,,,,,,,,,,,,,,,,,,,,,,,,,,,,,,,03_SY,3,32,F,2022-11-24_14h20.32.429,dynamic target,2022.1.3,120.068774306666,
1,7,2,2,L,0,45,45,45,,,,,,,None,504.66248084549807,None,503.6883212221928,504.6874575457987,504.162894242776,None,4,"[0.01691401015887095, 0.050397906907164725, 0.06682122828715364, 0.18358623582753353]","[0.0421806337635644, 0.05846059704890649, 0.17495941394372494, 0.6837651929108688]",504.66248084549807,None,[2 0 1 0 0 0 0 3],space,0,5.968934259517482,0.002729993530010688,None,504.8456584947198,None,1,510.81553020365754,None,None,511.31508258644845,None,,,,,,,,,,,,,,,,,,,,,,,,,,,,,,,,,,,,,,,,,,,,,,03_SY,3,32,F,2022-11-24_14h20.32.429,dynamic target,2022.1.3,120.068774306666,
1,6,3,2,L,0,46,46,46,,,,,,,None,512.3558494271765,None,511.3733830521851,512.3724946809962,511.8562846328459,None,6,"[0.016931328587816097, 0.05077217737016326, 0.08347834843880264, 0.10062391238716373, 0.12516219990357058, 0.15840684578324726]","[0.033535210608533816, 0.05849844102158386, 0.09189831132607651, 0.10844831379472453, 0.15068988276834716, 0.6588314679684117]",512.3558494271765,None,[1 2 3 2 1 1 3 3],space,0,1.4205536287026916,0.002499722584616393,None,512.5140446032892,None,1,513.9378306937688,None,None,514.4373949428898,None,,,,,,,,,,,,,,,,,,,,,,,,,,,,,,,,,,,,,,,,,,,,,,03_SY,3,32,F,2022-11-24_14h20.32.429,dynamic target,2022.1.3,120.068774306666,
1,5,3,2,L,0,47,47,47,,,,,,,None,515.469825526463,None,514.4873588307619,None,514.970268749923,None,1,[0.008678135742229642],[0.517233118220247],515.469825526463,None,[0 1 1 1 1 0 1 0],space,0,1.8075957888122502,0.002792532293824479,None,515.4864778359406,None,1,517.2932757035924,None,None,517.7928415562708,None,,,,,,,,,,,,,,,,,,,,,,,,,,,,,,,,,,,,,,,,,,,,,,03_SY,3,32,F,2022-11-24_14h20.32.429,dynamic target,2022.1.3,120.068774306666,
1,4,2,2,L,0,48,48,48,,,,,,,None,518.8169596153512,None,517.8511574161676,518.850266479285,518.3173961038665,None,1,[0.8333810124604497],[1.3416085483750066],518.8169596153512,None,[2 1 2 1 0 3 3 2],space,0,2.1965737642603926,0.002754367611487396,None,519.6579017249787,None,1,521.8560367227619,None,None,522.3555727492619,None,,,,,,,,,,,,,,,,,,,,,,,,,,,,,,,,,,,,,,,,,,,,,,03_SY,3,32,F,2022-11-24_14h20.32.429,dynamic target,2022.1.3,120.068774306666,
1,3,4,2,L,0,49,49,49,,,,,,,None,523.3880203305507,None,522.4055404856717,523.4046610944079,522.8884571397775,None,5,"[0.12472891850302403, 0.1581249402679532, 0.20842118159089296, 0.25795252570060256, 0.2746359442044195]","[0.14127603456836368, 0.20052494078117888, 0.2503542259855749, 0.266562029155466, 0.7749528072854446]",523.3880203305507,None,[2 3 3 3 3 1 0 0],space,0,3.8707243435001146,0.00280568146990845,None,523.6627762209009,None,1,527.5344505215726,None,None,528.0340195813676,None,,,,,,,,,,,,,,,,,,,,,,,,,,,,,,,,,,,,,,,,,,,,,,03_SY,3,32,F,2022-11-24_14h20.32.429,dynamic target,2022.1.3,120.068774306666,
1,2,4,2,L,0,50,50,50,,,,,,,None,529.0581408475628,None,528.0673314804753,529.0664806325458,528.5585542448425,None,4,"[0.26666112904604233, 0.2832579554124095, 0.9505074619974039, 0.9667396392524097]","[0.27493677170423325, 0.750039287175241, 0.9589723245117057, 1.4744088162351545]",529.0581408475628,None,[3 0 2 2 0 3 3 2],space,0,2.55788362749081,0.002979186458105687,None,530.0323078472356,None,1,532.5884330222634,None,None,533.0880020820584,None,,,,,,,,,,,,,,,,,,,,,,,,,,,,,,,,,,,,,,,,,,,,,,03_SY,3,32,F,2022-11-24_14h20.32.429,dynamic target,2022.1.3,120.068774306666,
1,1,1,2,L,0,51,51,51,,,,,,,None,534.112120141137,None,533.1213133397432,None,533.6125367455334,None,1,[0.00868326712770795],[0.5177680652050185],534.112120141137,None,[2 1 2 1 2 3 1 1],space,0,2.795773075629768,0.0021408462798717665,None,534.1287653949585,None,1,536.9263703847191,None,None,537.4259343131287,None,,,,,,,,,,,,,,,,,,,,,,,,,,,,,,,,,,,,,,,,,,,,,,03_SY,3,32,F,2022-11-24_14h20.32.429,dynamic target,2022.1.3,120.068774306666,
1,8,3,2,L,0,52,52,52,,,,,,,None,538.4583713109332,None,537.4758901832083,538.4750223375631,537.9588074787371,None,1,[0.5341708610412752],[1.0416912278324162],538.4583713109332,None,[0 3 0 0 3 2 0 3],space,0,1.813216901386113,0.0025683548701636028,None,538.9995833956036,None,1,540.8146828835561,None,None,541.3142371906176,None,,,,,,,,,,,,,,,,,,,,,,,,,,,,,,,,,,,,,,,,,,,,,,03_SY,3,32,F,2022-11-24_14h20.32.429,dynamic target,2022.1.3,120.068774306666,
1,7,3,2,L,0,53,53,53,,,,,,,None,542.3466969589481,None,541.3725764624596,542.3716726971124,541.8471135633426,None,1,[0.3665515739558032],[0.8670849173813622],542.3466969589481,None,[0 2 3 1 2 1 1 1],space,0,0.9155146077191603,0.002609405959447031,None,542.713071179378,None,1,543.6289267129032,None,None,544.1284784542711,None,,,,,,,,,,,,,,,,,,,,,,,,,,,,,,,,,,,,,,,,,,,,,,03_SY,3,32,F,2022-11-24_14h20.32.429,dynamic target,2022.1.3,120.068774306666,
1,6,2,2,L,0,54,54,54,,,,,,,None,545.1609388640263,None,544.1868356859668,545.1859194128665,544.6613743904072,None,1,[1.0169213865247002],[1.5245899220863066],545.1609388640263,None,[2 2 2 2 1 1 3 3],space,0,1.8120527182018122,0.002726465700106928,None,546.1850435494307,None,1,548.0001609972333,None,None,548.4997303777398,None,,,,,,,,,,,,,,,,,,,,,,,,,,,,,,,,,,,,,,,,,,,,,,03_SY,3,32,F,2022-11-24_14h20.32.429,dynamic target,2022.1.3,120.068774306666,
1,5,3,2,L,0,55,55,55,,,,,,,None,549.5238397776047,None,548.5330278448237,549.5321619234473,549.0242708140231,None,13,"[0.008256720671852236, 0.041923743756342446, 0.09208624833445356, 0.1089460582297761, 0.12523532215163868, 0.1747708355105715, 0.19973502805987664, 0.2246892785460659, 0.2417078406942892, 0.25793681083086994, 0.2746122115440812, 0.3003259071483626, 0.40024008471846173]","[0.025292280535722966, 0.07508757030882407, 0.099741634718157, 0.11674448199664766, 0.13339230150995718, 0.19166047158796573, 0.21674396885828173, 0.23328980207588756, 0.24980452626732585, 0.26656940552311426, 0.2828413510160317, 0.3914852989000792, 0.908031132117685]",549.5238397776047,None,[1 2 1 2 2 3 0 2],space,0,1.4250936224034376,0.0028589195990207372,None,549.9318381971389,None,1,551.3556066484798,None,None,551.8551741047174,None,,,,,,,,,,,,,,,,,,,,,,,,,,,,,,,,,,,,,,,,,,,,,,03_SY,3,32,F,2022-11-24_14h20.32.429,dynamic target,2022.1.3,120.068774306666,
1,4,2,2,L,0,56,56,56,,,,,,,None,552.8792793353314,None,551.8884789481672,552.8876059711365,552.3797228795029,None,2,"[0.008667872971273027, 0.8001379701399856]","[0.2999635030173522, 1.308674351344962]",552.8792793353314,None,[3 0 0 3 0 2 2 3],space,0,1.4453080758503347,0.0023586094703205163,None,553.6869463314742,None,1,555.1356857103074,None,None,555.6352486765825,None,,,,,,,,,,,,,,,,,,,,,,,,,,,,,,,,,,,,,,,,,,,,,,03_SY,3,32,F,2022-11-24_14h20.32.429,dynamic target,2022.1.3,120.068774306666,
1,3,3,2,L,0,57,57,57,,,,,,,None,556.6676966747962,None,555.6768756658767,None,556.1681250493093,None,1,[0.008681663570314413],[0.5088516407286079],556.6676966747962,None,[2 2 3 2 0 0 2 3],space,0,4.519704833328433,0.0028816901249228977,None,556.6760235351012,None,1,561.1971292461403,None,None,561.6967021544749,None,,,,,,,,,,,,,,,,,,,,,,,,,,,,,,,,,,,,,,,,,,,,,,03_SY,3,32,F,2022-11-24_14h20.32.429,dynamic target,2022.1.3,120.068774306666,
1,5,1,0,L,0,58,58,58,,,,,,,None,562.729169299173,None,561.7383442172159,None,562.2295644158894,None,1,[0.008695774880834506],[0.5175567162459629],562.729169299173,None,[1 0 0 3 0 2 0 2],space,0,1.9852741958748084,0.002411206176475389,None,562.7457991588362,None,1,564.7357496602053,None,None,565.235317116443,None,,,,,,,,,,,,,,,,,,,,,,,,,,,,,,,,,,,,,,,,,,,,,,03_SY,3,32,F,2022-11-24_14h20.32.429,dynamic target,2022.1.3,120.068774306666,
1,8,4,0,L,0,59,59,59,,,,,,,None,566.2677464171684,None,565.2852813250247,None,565.7681941305909,None,1,[0.008635801808850374],[0.5176269520925416],566.2677464171684,None,[0 1 2 3 1 2 1 0],space,0,5.325992128080543,0.0017370703499182127,None,566.2844067444366,None,1,571.6131618124818,None,space,572.1210285478228,None,3.735408092976286,,,,,,,,,,,,,,,,,,,,,,,,,,,,,,,,,,,,,,,,,,,,,03_SY,3,32,F,2022-11-24_14h20.32.429,dynamic target,2022.1.3,120.068774306666,
1,7,3,2,L,0,60,60,60,,,,,,,None,576.900294284982,None,575.9261160604037,None,576.4006954952201,None,1,[0.025310240385806537],[0.5341160193529504],576.900294284982,None,[2 2 2 3 0 1 1 2],space,0,1.1091057632638694,0.002508061088519753,None,576.9335790198147,None,1,578.0409657781456,None,None,578.5405264994386,None,,,,,,,,,,,,,,,,,,,,,,,,,,,,,,,,,,,,,,,,,,,,,,03_SY,3,32,F,2022-11-24_14h20.32.429,dynamic target,2022.1.3,120.068774306666,
1,7,3,0,L,0,61,61,61,,,,,,,None,579.5729567623002,None,578.5988394729284,579.5979575159727,579.0733897229875,None,2,"[0.008704754805876291, 0.617559410224203]","[0.3499598789767333, 1.1250986990016827]",579.5729567623002,None,[0 0 1 1 3 1 0 3],space,0,1.2375093955160992,0.0024913840807130327,None,580.1974368085848,None,1,581.438037873475,None,None,581.9376091782522,None,,,,,,,,,,,,,,,,,,,,,,,,,,,,,,,,,,,,,,,,,,,,,,03_SY,3,32,F,2022-11-24_14h20.32.429,dynamic target,2022.1.3,120.068774306666,
1,6,2,2,L,0,62,62,62,,,,,,,None,582.9700468174815,None,581.9875653690451,None,582.470463421876,None,1,[0.00854728540070937],[0.517683397336441],582.9700468174815,None,[1 2 2 0 1 3 2 0],space,0,3.03888338824072,0.0022267969961831113,None,582.9866978441114,None,1,586.0257467289011,None,None,586.5253132230043,None,,,,,,,,,,,,,,,,,,,,,,,,,,,,,,,,,,,,,,,,,,,,,,03_SY,3,32,F,2022-11-24_14h20.32.429,dynamic target,2022.1.3,120.068774306666,
1,5,3,2,L,0,63,63,63,,,,,,,None,587.5577492586744,None,586.5836287621878,None,587.0581905578638,None,1,[0.008680380724399583],[0.5171449225254037],587.5577492586744,None,[1 1 0 1 2 1 0 1],space,0,2.8516990887419524,0.0024246760658570565,None,587.5744060581128,None,1,590.4302888392995,None,None,590.9298578990945,None,,,,,,,,,,,,,,,,,,,,,,,,,,,,,,,,,,,,,,,,,,,,,,03_SY,3,32,F,2022-11-24_14h20.32.429,dynamic target,2022.1.3,120.068774306666,
1,4,1,2,L,0,64,64,64,,,,,,,None,591.9623022732667,None,590.9881968502268,None,591.4627204812205,None,1,[0.008645102445370867],[0.5170650653326447],591.9623022732667,None,[0 1 1 2 0 3 2 0],space,0,1.7754303375349991,0.002934928254035185,None,591.9789680526319,None,1,593.7524289094581,None,None,594.2520053456208,None,,,,,,,,,,,,,,,,,,,,,,,,,,,,,,,,,,,,,,,,,,,,,,03_SY,3,32,F,2022-11-24_14h20.32.429,dynamic target,2022.1.3,120.068774306666,
1,5,1,1,L,0,65,65,65,,,,,,,None,595.2844381741743,None,594.3103016421064,None,594.7848708141519,None,1,[0.008622652630947414],[0.5169354978370393],595.2844381741743,None,[2 2 3 3 1 2 3 0],space,0,2.21308175350714,0.0029416631969070295,None,595.3010840694187,None,1,597.5158582275035,None,None,598.0154260044526,None,,,,,,,,,,,,,,,,,,,,,,,,,,,,,,,,,,,,,,,,,,,,,,03_SY,3,32,F,2022-11-24_14h20.32.429,dynamic target,2022.1.3,120.068774306666,
1,4,1,2,L,0,66,66,66,,,,,,,None,599.0478690957789,None,598.0653844402259,None,598.5482828137683,None,1,[0.007660197057703044],[0.5160557858616812],599.0478690957789,None,[1 0 1 0 0 0 0 3],space,0,1.6009426903838175,0.002937173236205126,None,599.0645355165652,None,1,600.663162036979,None,None,601.1627121747895,None,,,,,,,,,,,,,,,,,,,,,,,,,,,,,,,,,,,,,,,,,,,,,,03_SY,3,32,F,2022-11-24_14h20.32.429,dynamic target,2022.1.3,120.068774306666,
1,3,2,2,L,0,67,67,67,,,,,,,None,602.1951652081771,None,601.2126718934105,602.2118313082519,601.6955741154925,None,1,[0.12475842397179804],[0.6329567751290597],602.1951652081771,None,[1 0 3 0 3 2 2 3],space,0,3.1532417757789517,0.0032707133213989437,None,602.3283769490445,None,1,605.4839910380342,None,None,605.9835610599637,None,,,,,,,,,,,,,,,,,,,,,,,,,,,,,,,,,,,,,,,,,,,,,,03_SY,3,32,F,2022-11-24_14h20.32.429,dynamic target,2022.1.3,120.068774306666,
1,2,4,2,L,0,68,68,68,,,,,,,None,607.0076903439494,None,606.0168662241267,607.0160047927129,606.5081133625772,None,2,"[0.00870732049952494, 0.7669998005167145]","[0.3831907342573686, 1.2750631320832326]",607.0076903439494,None,[0 0 0 2 3 3 0 1],space,0,2.0026481064978725,0.0024734242324484512,None,607.7820071800907,None,1,609.7886196122836,None,None,610.2881870685212,None,,,,,,,,,,,,,,,,,,,,,,,,,,,,,,,,,,,,,,,,,,,,,,03_SY,3,32,F,2022-11-24_14h20.32.429,dynamic target,2022.1.3,120.068774306666,
1,1,3,2,L,0,69,69,69,,,,,,,None,611.3206327255411,None,610.3298182270664,611.3289583992118,610.8210470849554,None,1,[0.8339242979454866],[1.3415389539532043],611.3206327255411,None,[3 1 0 2 2 2 2 2],space,0,2.535476468694469,0.0025382079802511726,None,612.1615777215738,None,1,614.7010537942424,None,None,615.2006321546739,None,,,,,,,,,,,,,,,,,,,,,,,,,,,,,,,,,,,,,,,,,,,,,,03_SY,3,32,F,2022-11-24_14h20.32.429,dynamic target,2022.1.3,120.068774306666,
1,2,2,1,L,0,70,70,70,,,,,,,None,616.2330694731918,None,615.2589666158437,None,615.7334847947404,None,1,[0.00861110701407597],[0.5171725037253054],616.2330694731918,None,[0 2 2 1 3 2 1 2],space,0,2.8305677207717963,0.0028332626698102104,None,616.2497221033791,None,1,619.0806288256881,None,None,619.5801850570185,None,,,,,,,,,,,,,,,,,,,,,,,,,,,,,,,,,,,,,,,,,,,,,,03_SY,3,32,F,2022-11-24_14h20.32.429,dynamic target,2022.1.3,120.068774306666,
1,1,1,2,L,0,71,71,71,,,,,,,None,620.6042960604409,None,619.6218630394596,None,620.1047322282466,None,1,[0.00866755225797533],[0.5172497952262347],620.6042960604409,None,[1 3 0 1 3 3 3 0],space,0,2.8595058510109084,0.0026661719148250995,None,620.6209608776717,None,1,623.4851414306158,None,None,623.9847281295513,None,,,,,,,,,,,,,,,,,,,,,,,,,,,,,,,,,,,,,,,,,,,,,,03_SY,3,32,F,2022-11-24_14h20.32.429,dynamic target,2022.1.3,120.068774306666,
1,8,2,2,L,0,72,72,72,,,,,,,None,625.017158392413,None,624.0430619492963,None,624.517616047895,None,1,[0.008646385291285696],[0.5179794141622551],625.017158392413,None,[1 1 0 0 1 2 2 3],space,0,2.8938175044513628,0.0019538714059308404,None,625.0338103811773,None,1,627.9313430183956,None,None,628.4308928354947,None,,,,,,,,,,,,,,,,,,,,,,,,,,,,,,,,,,,,,,,,,,,,,,03_SY,3,32,F,2022-11-24_14h20.32.429,dynamic target,2022.1.3,120.068774306666,
1,7,1,2,L,0,73,73,73,,,,,,,None,629.4633397753605,None,628.4892016397334,629.4883193620644,628.9637573418895,None,2,"[0.00866402442989056, 0.966827834945434]","[0.458181770365627, 1.4745412701322493]",629.4633397753605,None,[2 2 2 3 2 1 0 2],space,0,0.9142413825866242,0.0028278105728531955,None,630.4375122271304,None,1,631.3533789855628,None,None,631.852965363785,None,,,,,,,,,,,,,,,,,,,,,,,,,,,,,,,,,,,,,,,,,,,,,,03_SY,3,32,F,2022-11-24_14h20.32.429,dynamic target,2022.1.3,120.068774306666,
1,6,1,2,L,0,74,74,74,,,,,,,None,632.8853773460851,None,631.902920913155,None,632.3858317944505,None,1,[0.008644140309115755],[0.5169710968257277],632.8853773460851,None,[1 3 1 1 3 0 0 3],space,0,1.3460552056421875,0.002946473872725619,None,632.9020418426026,None,1,634.2508785894843,None,None,634.7504524599533,None,,,,,,,,,,,,,,,,,,,,,,,,,,,,,,,,,,,,,,,,,,,,,,03_SY,3,32,F,2022-11-24_14h20.32.429,dynamic target,2022.1.3,120.068774306666,
1,5,3,2,L,0,75,75,75,,,,,,,None,635.7828910613171,None,634.8087609434806,635.8078607059615,635.2833281912554,None,5,"[0.24130117835920828, 0.2583306447013456, 0.28356391429952055, 0.2996556198631879, 0.3334018587174796]","[0.24989785334946646, 0.2665633120031998, 0.2915390501693764, 0.3244796614326333, 0.8419430505964556]",635.7828910613171,None,[2 1 3 0 0 1 2 2],space,0,1.4665940268205304,0.0019654170246212743,None,636.1242757529817,None,1,637.5896735348124,None,None,638.0892502916865,None,,,,,,,,,,,,,,,,,,,,,,,,,,,,,,,,,,,,,,,,,,,,,,03_SY,3,32,F,2022-11-24_14h20.32.429,dynamic target,2022.1.3,120.068774306666,
1,1,3,0,L,0,76,76,76,,,,,,,None,639.1133492042825,None,638.1309228220307,None,638.6137965007783,None,1,[0.00863868821215874],[0.5088192488547065],639.1133492042825,None,[1 3 3 3 3 1 2 0],space,0,2.3250931734073674,0.0025180031479976606,None,639.1216856859337,None,1,641.444693281026,None,None,641.9442623408229,None,,,,,,,,,,,,,,,,,,,,,,,,,,,,,,,,,,,,,,,,,,,,,,03_SY,3,32,F,2022-11-24_14h20.32.429,dynamic target,2022.1.3,120.068774306666,
1,8,2,2,L,0,77,77,77,,,,,,,None,642.9766897172794,None,642.0025958398564,None,642.4771306957573,None,1,[0.008707961922482355],[0.5173318973993446],642.9766897172794,None,[2 3 3 3 1 2 3 1],space,0,3.1578375733024586,0.0025888804157148115,None,642.9933426681782,None,1,646.1489711891918,None,None,646.6485396075639,None,,,,,,,,,,,,,,,,,,,,,,,,,,,,,,,,,,,,,,,,,,,,,,03_SY,3,32,F,2022-11-24_14h20.32.429,dynamic target,2022.1.3,120.068774306666,
1,7,2,2,L,0,78,78,78,,,,,,,None,647.6809910373922,None,646.6984990054716,None,647.1814015482669,None,1,[0.008367686894416693],[0.5168197209422942],647.6809910373922,None,[0 3 0 2 1 1 0 0],space,0,5.508977029619928,0.002951284546725219,None,647.6976369326367,None,1,653.2095414272808,None,None,653.7091233155422,None,,,,,,,,,,,,,,,,,,,,,,,,,,,,,,,,,,,,,,,,,,,,,,03_SY,3,32,F,2022-11-24_14h20.32.429,dynamic target,2022.1.3,120.068774306666,
1,6,4,2,L,0,79,79,79,,,,,,,None,654.7498959290788,None,653.7757375886194,None,654.2503134956078,None,1,[0.009084156652534148],[0.5175640926136111],654.7498959290788,None,[3 1 1 1 3 2 1 3],space,0,1.5917260798305506,0.0023624580117029836,None,654.7665517663827,None,1,656.3568452367581,None,None,656.8564117308613,None,,,,,,,,,,,,,,,,,,,,,,,,,,,,,,,,,,,,,,,,,,,,,,03_SY,3,32,F,2022-11-24_14h20.32.429,dynamic target,2022.1.3,120.068774306666,
1,5,2,2,L,0,80,80,80,,,,,,,None,657.888864764247,None,656.9147439470489,657.9138478787809,657.3892903485685,None,1,[1.0581196805978834],[1.566022977063767],657.888864764247,None,[0 3 1 1 0 3 3 3],space,0,2.4122564983663324,0.0030770035009481944,None,658.9546067979318,None,1,661.3691865406308,None,None,661.8687636182165,None,,,,,,,,,,,,,,,,,,,,,,,,,,,,,,,,,,,,,,,,,,,,,,03_SY,3,32,F,2022-11-24_14h20.32.429,dynamic target,2022.1.3,120.068774306666,
1,4,4,2,L,0,81,81,81,,,,,,,None,662.901222103701,None,661.9271093042917,None,662.4016249174965,None,1,[0.008675570048580994],[0.5174348458313034],662.901222103701,None,[2 1 2 1 2 2 3 1],space,0,1.200128531863811,0.0025228138219972607,None,662.9178628675581,None,1,664.116832998403,None,None,664.6163975682355,None,,,,,,,,,,,,,,,,,,,,,,,,,,,,,,,,,,,,,,,,,,,,,,03_SY,3,32,F,2022-11-24_14h20.32.429,dynamic target,2022.1.3,120.068774306666,
1,3,2,2,L,0,82,82,82,,,,,,,None,665.6488345660418,None,664.6663611353961,None,665.1492893351187,None,1,[0.008660175890327082],[0.5172411360108526],665.6488345660418,None,[3 0 1 3 0 0 2 0],space,0,5.924432635754783,0.0027902873134735273,None,665.665480140573,None,1,671.5937221983113,None,None,672.0932896545471,None,,,,,,,,,,,,,,,,,,,,,,,,,,,,,,,,,,,,,,,,,,,,,,03_SY,3,32,F,2022-11-24_14h20.32.429,dynamic target,2022.1.3,120.068774306666,
1,3,2,0,L,0,83,83,83,,,,,,,None,673.1257507057253,None,672.151622191448,673.1507123325791,672.6261544816552,None,4,"[0.14141169558206457, 0.15841390143759781, 0.18349483301426517, 0.2665867239484214]","[0.14994454896077514, 0.16660776263233856, 0.25821615065069636, 0.7752927616020315]",673.1257507057253,None,[0 0 0 2 2 2 3 3],space,0,2.0763925365390605,0.002305050631548511,None,673.4005014646882,None,1,675.4820404699567,None,None,675.9816120954454,None,,,,,,,,,,,,,,,,,,,,,,,,,,,,,,,,,,,,,,,,,,,,,,03_SY,3,32,F,2022-11-24_14h20.32.429,dynamic target,2022.1.3,120.068774306666,
1,2,3,2,L,0,84,84,84,,,,,,,None,677.0057260814863,None,676.0149156560492,None,676.5061534938632,None,1,[0.008747730162212974],[0.5088660727506067],677.0057260814863,None,[1 0 2 2 1 1 0 0],space,0,2.686946963545779,0.0027412184354034252,None,677.0140542246372,None,1,679.7034190424438,None,None,680.2029595589045,None,,,,,,,,,,,,,,,,,,,,,,,,,,,,,,,,,,,,,,,,,,,,,,03_SY,3,32,F,2022-11-24_14h20.32.429,dynamic target,2022.1.3,120.068774306666,
1,1,1,2,L,0,85,85,85,,,,,,,None,681.2270917292954,None,680.2362775515321,681.235418685812,680.7275102579606,None,2,"[0.7669901791687153, 1.1583103115845006]","[1.0088429815150448, 1.6660372166606976]",681.2270917292954,None,[0 2 1 3 1 2 2 1],space,0,1.1961507456344407,0.0028233206103323027,None,682.3927614104377,None,1,683.5917289755889,None,None,684.0912887347474,None,,,,,,,,,,,,,,,,,,,,,,,,,,,,,,,,,,,,,,,,,,,,,,03_SY,3,32,F,2022-11-24_14h20.32.429,dynamic target,2022.1.3,120.068774306666,
1,8,3,2,L,0,86,86,86,,,,,,,None,685.1237260532635,None,684.149631213706,None,684.6241525997193,None,1,[0.008632273980765603],[0.5177177134792146],685.1237260532635,None,[3 0 0 1 3 1 3 1],space,0,1.1197841773828259,0.001966699870536104,None,685.1403992089963,None,0,686.264434107552,None,None,686.7639890560365,None,,,,,,,,,,,,,,,,,,,,,,,,,,,,,,,,,,,,,,,,,,,,,,03_SY,3,32,F,2022-11-24_14h20.32.429,dynamic target,2022.1.3,120.068774306666,
1,7,4,2,L,0,87,87,87,,,,,,,None,687.796422526013,None,686.8223119715858,687.8213979434677,687.2968625423564,None,2,"[0.00868807780170755, 0.4998204014937073]","[0.09338769609166775, 1.0080748771833896]",687.796422526013,None,[3 3 3 2 0 2 1 1],space,0,5.620427524892875,0.003335817778861383,None,688.3043226153641,None,1,693.9244903731978,None,None,694.424057508724,None,,,,,,,,,,,,,,,,,,,,,,,,,,,,,,,,,,,,,,,,,,,,,,03_SY,3,32,F,2022-11-24_14h20.32.429,dynamic target,2022.1.3,120.068774306666,
1,6,3,2,L,0,88,88,88,,,,,,,None,695.4565038071669,None,694.4823820278325,695.4814805074675,694.956918808004,None,1,[1.3084780758326815],[1.815684145236446],695.4565038071669,None,[2 3 1 0 1 2 2 3],space,0,1.9847758100167994,0.0027072230041085277,None,696.772024068765,None,1,698.7536540278488,None,None,699.2532295018771,None,,,,,,,,,,,,,,,,,,,,,,,,,,,,,,,,,,,,,,,,,,,,,,03_SY,3,32,F,2022-11-24_14h20.32.429,dynamic target,2022.1.3,120.068774306666,
1,5,1,2,L,0,89,89,89,,,,,,,None,700.2939902490834,None,699.3115315711711,None,699.7944200026541,None,1,[0.00865921375589096],[0.5174415807741752],700.2939902490834,None,[3 0 2 0 1 2 3 0],space,0,2.5259141310143605,0.002605557419883553,None,700.3106611598341,None,1,702.8418198973322,None,None,703.3413790150678,None,,,,,,,,,,,,,,,,,,,,,,,,,,,,,,,,,,,,,,,,,,,,,,03_SY,3,32,F,2022-11-24_14h20.32.429,dynamic target,2022.1.3,120.068774306666,
1,4,4,2,L,0,90,90,90,,,,,,,None,704.3738217856826,None,703.3913550899815,704.390477943698,703.8742393522134,None,4,"[0.025229741770090186, 0.04272327782746288, 0.08351298529305495, 0.12518849825573852]","[0.03359037300651835, 0.07526171671815973, 0.10854228229982255, 0.6339336627261218]",704.3738217856826,None,[3 2 1 1 3 1 0 3],space,0,1.3688860244910757,0.0026876595948124304,None,704.5070399407832,None,1,705.8808530672522,None,None,706.3804410490336,None,,,,,,,,,,,,,,,,,,,,,,,,,,,,,,,,,,,,,,,,,,,,,,03_SY,3,32,F,2022-11-24_14h20.32.429,dynamic target,2022.1.3,120.068774306666,
1,3,3,2,L,0,91,91,91,,,,,,,None,707.4128722740297,None,706.4387687752587,707.4378409565415,706.9132891991376,None,4,"[0.016960192631813698, 0.050273791510335286, 0.14224330081560765, 0.16675304499767662]","[0.025251550159737235, 0.05852377723931568, 0.15009784911671886, 0.6756524717566208]",707.4128722740297,None,[0 0 3 2 3 2 0 3],space,0,1.7916047866965528,0.0025109474918281194,None,707.58772585314,None,1,709.3778431886931,None,None,709.8774148141817,None,,,,,,,,,,,,,,,,,,,,,,,,,,,,,,,,,,,,,,,,,,,,,,03_SY,3,32,F,2022-11-24_14h20.32.429,dynamic target,2022.1.3,120.068774306666,
1,5,4,0,L,0,92,92,92,,,,,,,None,710.9098492462945,None,709.9273706842632,710.9264951415389,710.4102883005035,None,2,"[0.008723356080736266, 0.7921118411231873]","[0.4081962986037979, 1.2996998780654394]",710.9098492462945,None,[0 0 1 0 3 1 1 1],space,0,2.886170135858265,0.002845770424755756,None,711.7091880030748,None,1,714.598348463438,None,None,715.0979216924841,None,,,,,,,,,,,,,,,,,,,,,,,,,,,,,,,,,,,,,,,,,,,,,,03_SY,3,32,F,2022-11-24_14h20.32.429,dynamic target,2022.1.3,120.068774306666,
1,7,4,0,L,0,93,93,93,,,,,,,None,716.1303506724998,None,715.1478810903936,None,715.6308051208653,None,1,[0.008659534469188657],[0.5171769936878263],716.1303506724998,None,[0 3 1 3 2 3 1 3],space,0,2.736670413916727,0.0028108128572057467,None,716.1470007369953,None,1,718.8863215210949,None,None,719.3858992401053,None,,,,,,,,,,,,,,,,,,,,,,,,,,,,,,,,,,,,,,,,,,,,,,03_SY,3,32,F,2022-11-24_14h20.32.429,dynamic target,2022.1.3,120.068774306666,
1,5,2,0,L,0,94,94,94,,,,,,,None,720.4183240508683,None,719.4442320977159,720.4433013925936,719.9187653500594,None,2,"[0.008639329635116155, 0.4665157825402275]","[0.06684848877375771, 0.9666389358026208]",720.4183240508683,None,[3 1 1 0 3 1 0 1],space,0,3.0226419103491935,0.0029663579935004236,None,720.8846012239628,None,1,723.9070048549311,None,None,724.4065658969373,None,,,,,,,,,,,,,,,,,,,,,,,,,,,,,,,,,,,,,,,,,,,,,,03_SY,3,32,F,2022-11-24_14h20.32.429,dynamic target,2022.1.3,120.068774306666,
1,4,3,2,L,0,95,95,95,,,,,,,None,725.4389984047793,None,724.4565317090783,None,724.9394422696623,None,1,[0.008654723793370067],[0.5171224727109802],725.4389984047793,None,[1 2 0 3 3 2 3 1],space,0,2.7551475725122145,0.0027126751010655425,None,725.4556507142552,None,1,728.2116080929645,None,None,728.7111957540344,None,,,,,,,,,,,,,,,,,,,,,,,,,,,,,,,,,,,,,,,,,,,,,,03_SY,3,32,F,2022-11-24_14h20.32.429,dynamic target,2022.1.3,120.068774306666,
1,3,2,2,L,0,96,96,96,,,,,,,None,729.7436404489181,None,728.769534063742,729.7686142628154,729.2440746924531,None,5,"[0.03315067737457866, 0.07516165469314728, 0.10855703503330005, 0.1667421408019436, 0.19137792464971426]","[0.041691869255373604, 0.10036573953220795, 0.1504317099133914, 0.1832613549559028, 0.6917223689306411]",729.7436404489181,None,[2 1 3 1 3 2 1 3],space,0,2.290949893565994,0.002723900008277269,None,729.9351354333103,None,1,732.2248262224075,None,None,732.7243972064732,None,,,,,,,,,,,,,,,,,,,,,,,,,,,,,,,,,,,,,,,,,,,,,,03_SY,3,32,F,2022-11-24_14h20.32.429,dynamic target,2022.1.3,120.068774306666,
1,2,2,2,L,0,97,97,97,,,,,,,None,733.7568326007204,None,732.7743780920591,733.7734974179493,733.257262354291,None,2,"[0.03362148203268589, 0.31666199496612535]","[0.3082577469485841, 0.816739927890012]",733.7568326007204,None,[1 1 0 2 1 0 3 3],space,0,2.3129452586435946,0.0028900286270072684,None,734.0732659283021,None,1,736.3879193063894,None,None,736.8874870833386,None,,,,,,,,,,,,,,,,,,,,,,,,,,,,,,,,,,,,,,,,,,,,,,03_SY,3,32,F,2022-11-24_14h20.32.429,dynamic target,2022.1.3,120.068774306666,
1,1,1,2,L,0,98,98,98,,,,,,,None,737.9199266468368,None,736.9291259389629,737.928251358373,737.4203490240416,None,3,"[0.008588657199652516, 0.09179343862524547, 0.10859680327484966]","[0.07500771311424614, 0.10010596311803965, 0.6088273949299037]",737.9199266468368,None,[1 0 1 1 0 0 1 2],space,0,3.573856669754605,0.002355081644054735,None,738.0281700259056,None,1,741.6000761369378,None,None,742.0996602701796,None,,,,,,,,,,,,,,,,,,,,,,,,,,,,,,,,,,,,,,,,,,,,,,03_SY,3,32,F,2022-11-24_14h20.32.429,dynamic target,2022.1.3,120.068774306666,
1,8,1,2,L,0,99,99,99,,,,,,,None,743.1237776878352,None,742.1496081224705,None,742.6241981407693,None,1,[0.00958542891567049],[0.5174184895386134],743.1237776878352,None,[1 1 0 2 3 3 0 2],space,0,3.8365874778901343,0.002473103520969744,None,743.1404392979493,None,1,746.9788282223653,None,None,747.4783498168415,None,,,,,,,,,,,,,,,,,,,,,,,,,,,,,,,,,,,,,,,,,,,,,,03_SY,3,32,F,2022-11-24_14h20.32.429,dynamic target,2022.1.3,120.068774306666,
1,7,4,2,L,0,100,100,100,,,,,,,None,748.5107922667448,None,747.5366913336657,748.5357702498914,748.0112335659342,None,2,"[0.7832448062363255, 1.3582887597640365]","[1.0331051363245933, 1.8656798797710508]",748.5107922667448,None,[1 1 0 3 2 0 0 3],space,0,1.5653376069767546,0.002667134051080211,None,749.8763044143379,None,1,751.4416211844127,None,None,751.9411790193024,None,,,,,,,,,,,,,,,,,,,,,,,,,,,,,,,,,,,,,,,,,,,,,,03_SY,3,32,F,2022-11-24_14h20.32.429,dynamic target,2022.1.3,120.068774306666,
1,6,1,2,L,0,101,101,101,,,,,,,None,752.9736224313401,None,751.98282076133,752.9819397665087,752.4740422428513,None,2,"[0.008955551293183817, 0.7423454153940838]","[0.3002537470347306, 1.2499106818140717]",752.9736224313401,None,[2 0 0 3 1 3 0 2],space,0,1.1098270436978055,0.0025789383544179145,None,753.7229834134359,None,1,754.83036119184,None,None,755.329929610212,None,,,,,,,,,,,,,,,,,,,,,,,,,,,,,,,,,,,,,,,,,,,,,,03_SY,3,32,F,2022-11-24_14h20.32.429,dynamic target,2022.1.3,120.068774306666,
1,5,4,2,L,0,102,102,102,,,,,,,None,756.3540499142728,None,755.3632421507427,756.3623759086549,755.8544729329005,None,4,"[0.07485120584351534, 0.11733555351383984, 0.14187672743355506, 0.1674021653161617]","[0.0834129232680425, 0.13302444528198976, 0.15839946941559901, 0.6749315120341635]",756.3540499142728,None,[0 2 0 3 0 1 2 0],space,0,1.8076467819591926,0.002594653224150534,None,756.5289060590749,None,1,758.3356943053786,None,None,758.8352412360725,None,,,,,,,,,,,,,,,,,,,,,,,,,,,,,,,,,,,,,,,,,,,,,,03_SY,3,32,F,2022-11-24_14h20.32.429,dynamic target,2022.1.3,120.068774306666,
1,2,1,0,L,0,103,103,103,,,,,,,None,759.8593493530916,None,758.86856885005,None,759.3598256098485,None,1,[0.009501402471869369],[0.5177138649396511],759.8593493530916,None,[1 3 2 3 3 3 1 1],space,0,1.7565455544681754,0.002282280103827361,None,759.8760051903955,None,1,761.6328329804419,None,None,762.1324046059306,None,,,,,,,,,,,,,,,,,,,,,,,,,,,,,,,,,,,,,,,,,,,,,,03_SY,3,32,F,2022-11-24_14h20.32.429,dynamic target,2022.1.3,120.068774306666,
1,6,3,0,L,0,104,104,104,,,,,,,None,763.1648329445234,None,762.1823925471745,None,762.6652681501928,None,1,[0.008994357400297304],[0.5174579370686843],763.1648329445234,None,[0 1 1 1 2 3 1 1],space,0,1.7311676439294388,0.002628007234307006,None,763.1814868575584,None,1,764.9133433994011,None,None,765.4129092520814,None,,,,,,,,,,,,,,,,,,,,,,,,,,,,,,,,,,,,,,,,,,,,,,03_SY,3,32,F,2022-11-24_14h20.32.429,dynamic target,2022.1.3,120.068774306666,
1,5,4,2,L,0,105,105,105,,,,,,,None,766.4370228211974,None,765.4462124919737,None,765.9374516126336,None,1,[0.008717583272300544],[0.5176327249009773],766.4370228211974,None,[3 2 2 0 1 0 1 1],space,0,1.6269581756241678,0.0024824041574902367,None,766.4536892419837,None,1,768.085610760003,None,None,768.5851778955273,None,,,,,,,,,,,,,,,,,,,,,,,,,,,,,,,,,,,,,,,,,,,,,,03_SY,3,32,F,2022-11-24_14h20.32.429,dynamic target,2022.1.3,120.068774306666,
1,4,2,2,L,0,106,106,106,,,,,,,None,769.6092847297004,None,768.6184779283049,None,769.1097391780659,None,1,[0.00965758903112146],[0.5176009744500334],769.6092847297004,None,[3 1 0 1 3 2 3 1],space,0,5.925839918345446,0.0024217896607297007,None,769.6259386427355,None,1,775.5541781347783,None,None,776.0537494395555,None,,,,,,,,,,,,,,,,,,,,,,,,,,,,,,,,,,,,,,,,,,,,,,03_SY,3,32,F,2022-11-24_14h20.32.429,dynamic target,2022.1.3,120.068774306666,
1,6,2,0,L,0,107,107,107,,,,,,,None,777.0861771367236,None,776.1037434743193,None,776.5866258122824,None,1,[0.008729128889171989],[0.5175756382323016],777.0861771367236,None,[0 0 2 3 3 1 1 2],space,0,3.6487556616302754,0.0022877322026033653,None,777.1028384261263,None,1,780.7497015778354,None,None,781.2492680719386,None,,,,,,,,,,,,,,,,,,,,,,,,,,,,,,,,,,,,,,,,,,,,,,03_SY,3,32,F,2022-11-24_14h20.32.429,dynamic target,2022.1.3,120.068774306666,
1,5,2,2,L,0,108,108,108,,,,,,,None,782.2900326676845,None,781.2992370911961,None,781.7904688354884,None,1,[0.009393643365910975],[0.5176144443375961],782.2900326676845,None,[0 2 2 2 2 3 2 1],space,0,1.3885411568699055,0.0022428325755754486,None,782.3066788836404,None,1,783.6971626001487,None,None,784.1967303770978,None,,,,,,,,,,,,,,,,,,,,,,,,,,,,,,,,,,,,,,,,,,,,,,03_SY,3,32,F,2022-11-24_14h20.32.429,dynamic target,2022.1.3,120.068774306666,
1,4,1,2,L,0,109,109,109,,,,,,,None,785.2208468326189,None,784.2300413140692,785.2291616020939,784.7213070537946,None,4,"[0.009037653469931684, 0.033535531320012524, 0.05893011886291788, 0.07567575542088889]","[0.025605295077184564, 0.05051785305477097, 0.06714450560139085, 0.5757344456469582]",785.2208468326189,None,[2 0 1 0 2 1 3 3],space,0,1.1671824685035972,0.002224872727310867,None,785.2957721228468,None,1,786.4614466146631,None,None,786.9610198437092,None,,,,,,,,,,,,,,,,,,,,,,,,,,,,,,,,,,,,,,,,,,,,,,03_SY,3,32,F,2022-11-24_14h20.32.429,dynamic target,2022.1.3,120.068774306666,
1,3,3,2,L,0,110,110,110,,,,,,,None,787.9851330921138,None,786.9943234043149,787.9934613314781,787.4855554693186,None,10,"[0.009225269766830024, 0.03360576716477226, 0.05067243605481053, 0.066794609221688, 0.1090387438871403, 0.15107601955787686, 0.17505691027690773, 0.2249333400886826, 0.2832143386312964, 0.30828083818596497]","[0.016765520678745816, 0.042152411142524215, 0.05966711416658654, 0.08336289225371729, 0.11666173839876137, 0.16697850526543334, 0.1914969086610654, 0.2581754202765296, 0.30064244951790897, 0.8085066191670194]",787.9851330921138,None,[1 0 0 3 3 1 3 1],space,0,1.4190289656580717,0.0025632234865042847,None,788.2932192583467,None,1,789.7169768054937,None,None,790.2165590144648,None,,,,,,,,,,,,,,,,,,,,,,,,,,,,,,,,,,,,,,,,,,,,,,03_SY,3,32,F,2022-11-24_14h20.32.429,dynamic target,2022.1.3,120.068774306666,
1,2,1,2,L,0,111,111,111,,,,,,,None,791.2490149342557,None,790.2665039803505,791.2656364554168,790.7494180687627,None,25,"[0.009322766100012814, 0.025192539222189225, 0.04183683090741397, 0.05805778325520805, 0.1000989074636891, 0.1167804016986338, 0.20002366851804254, 0.23334271949352114, 0.249727876189354, 0.2916885017839377, 0.3328730052544415, 0.39165399321245786, 0.407891301852942, 0.4245596469099837, 0.4502348571204493, 0.5252775278004265, 0.5502603216227726, 0.6501780270209565, 0.7167202361979434, 0.7501345385244349, 0.8582679135088256, 0.8917518102571194, 0.908170000249811, 1.0325836592292035, 1.0825450776228536]","[0.016388043100960203, 0.0333876832628448, 0.049746862317988416, 0.09134155595165794, 0.10925137569211074, 0.18286816250838456, 0.2165509004626074, 0.24116198951560364, 0.2832881023041409, 0.3164686058607913, 0.38327700568333967, 0.39995208568507223, 0.4164267209234822, 0.4409948346183228, 0.50803735392401, 0.5334450906429993, 0.6247712524364033, 0.708719443398877, 0.7419881426503707, 0.8504566612773488, 0.8831217812585237, 0.9005470057400089, 1.0243160343634372, 1.0742761699075345, 1.5826088992344012]",791.2490149342557,None,[1 0 2 2 0 1 2 1],space,0,1.5082461278361734,0.002637628580487217,None,792.3314047874537,None,1,793.8384258062524,None,None,794.3379810754484,None,,,,,,,,,,,,,,,,,,,,,,,,,,,,,,,,,,,,,,,,,,,,,,03_SY,3,32,F,2022-11-24_14h20.32.429,dynamic target,2022.1.3,120.068774306666,
1,1,3,2,L,0,112,112,112,,,,,,,None,795.3704238460632,None,794.3963344586027,None,794.8708722009087,None,1,[0.008587374353737687],[0.5170281834962225],795.3704238460632,None,[1 1 1 0 0 2 1 2],space,0,2.2764768195520446,0.0028470532706705853,None,795.3870905875629,None,1,797.6684601929519,None,None,798.1680282906125,None,,,,,,,,,,,,,,,,,,,,,,,,,,,,,,,,,,,,,,,,,,,,,,03_SY,3,32,F,2022-11-24_14h20.32.429,dynamic target,2022.1.3,120.068774306666,
1,8,2,2,L,0,113,113,113,,,,,,,None,799.19214218044,None,798.2013552631652,799.2004627227252,798.6925780275324,None,7,"[0.008649271696413052, 0.04168256861703412, 0.05841056603640027, 0.10848230922601942, 0.15844661402297788, 0.17448925070857513, 0.21661889132519718]","[0.0249417427348817, 0.04994506209914107, 0.06617339081276441, 0.13275119898025878, 0.16609751044416043, 0.20912706786839408, 0.7245128871545603]",799.19214218044,None,[0 3 0 3 2 2 1 1],space,0,1.7022404178860597,0.0029708479560213163,None,799.4169764206399,None,1,801.1238164939405,None,None,801.6233852330258,None,,,,,,,,,,,,,,,,,,,,,,,,,,,,,,,,,,,,,,,,,,,,,,03_SY,3,32,F,2022-11-24_14h20.32.429,dynamic target,2022.1.3,120.068774306666,
1,1,1,1,L,0,114,114,114,,,,,,,None,802.6558324936032,None,801.6733301989116,802.6724713331914,802.156259681482,None,2,"[0.00859058146852476, 0.600725257258091]","[0.39989339545718394, 1.1081683325483027]",802.6558324936032,None,[3 2 0 2 3 0 1 2],space,0,1.4234400332879886,0.002896442860219395,None,803.2636400255797,None,1,804.6874251539248,None,None,805.1869813852552,None,,,,,,,,,,,,,,,,,,,,,,,,,,,,,,,,,,,,,,,,,,,,,,03_SY,3,32,F,2022-11-24_14h20.32.429,dynamic target,2022.1.3,120.068774306666,
1,8,3,2,L,0,115,115,115,,,,,,,None,806.2194299286784,None,805.2369455938388,806.236078710328,805.7198455709404,None,18,"[0.06733981897741614, 0.09185437383348471, 0.1344698925549892, 0.1673540585743467, 0.20054674917082593, 0.2583405867608235, 0.3000613200620137, 0.32495688032213366, 0.3420665245703276, 0.3670672782427573, 0.40032539400999667, 0.43323233055343735, 0.4585877912795695, 0.48321363306604326, 0.49979217887084815, 0.5256267827553529, 0.5586494961953576, 0.6084585765675001]","[0.07559942605439574, 0.1005690707006579, 0.14186005042938632, 0.1916155719609378, 0.2086629981531587, 0.2843057202771888, 0.31696667100732157, 0.3342956820033578, 0.35814379811199615, 0.38316251163450943, 0.41688950779098377, 0.4501511513863079, 0.4664805042611988, 0.49176669127700734, 0.5169765489245037, 0.5426796610463498, 0.600302238632139, 1.1168448647331388]",806.2194299286784,None,[2 2 1 1 0 0 0 1],space,0,3.034098370861102,0.0025879182812786894,None,806.8355637757504,None,1,809.8746174712142,None,None,810.3741807582007,None,,,,,,,,,,,,,,,,,,,,,,,,,,,,,,,,,,,,,,,,,,,,,,03_SY,3,32,F,2022-11-24_14h20.32.429,dynamic target,2022.1.3,120.068774306666,
1,7,1,2,L,0,116,116,116,,,,,,,None,811.4066376401261,None,810.4158183309773,811.4149479196385,810.9070497545581,None,2,"[0.008763124322285876, 0.7339203211231506]","[0.15842191922820348, 1.2413941847298702]",811.4066376401261,None,[1 3 1 2 0 0 1 1],space,0,0.8585254355857614,0.002841921885192278,None,812.1476553094126,None,1,813.0052503699408,None,None,813.5048008284609,None,,,,,,,,,,,,,,,,,,,,,,,,,,,,,,,,,,,,,,,,,,,,,,03_SY,3,32,F,2022-11-24_14h20.32.429,dynamic target,2022.1.3,120.068774306666,
1,7,4,0,L,0,117,117,117,,,,,,,None,814.5372496925975,None,813.5631397795933,814.5622257514751,814.0376922746327,None,2,"[0.0759701686893095, 0.09195860510953935]","[0.0836034259700682, 0.592009277546822]",814.5372496925975,None,[2 2 3 2 3 0 0 3],space,0,3.800831980732255,0.0028451289999793516,None,814.6288471764219,None,1,818.433911918477,None,None,818.9334729604814,None,,,,,,,,,,,,,,,,,,,,,,,,,,,,,,,,,,,,,,,,,,,,,,03_SY,3,32,F,2022-11-24_14h20.32.429,dynamic target,2022.1.3,120.068774306666,
1,6,3,2,L,0,118,118,118,,,,,,,None,819.9659105997107,None,818.9918170429992,819.9908844136062,819.4663454846686,None,2,"[0.008616879822511692, 0.9081356841070374]","[0.266610135897281, 1.4165517984547478]",819.9659105997107,None,[2 3 1 1 2 0 2 0],space,0,0.9713633293322346,0.0026527020272624213,None,820.8817982043984,None,1,821.8559642419368,None,None,822.3555413195224,None,,,,,,,,,,,,,,,,,,,,,,,,,,,,,,,,,,,,,,,,,,,,,,03_SY,3,32,F,2022-11-24_14h20.32.429,dynamic target,2022.1.3,120.068774306666,
1,7,1,1,L,0,119,119,119,,,,,,,None,823.3879715823841,None,822.4138668007654,823.4129476412618,822.8883878660672,None,5,"[0.16647947798446694, 0.19154758109652903, 0.20799527655981365, 0.22463732326468744, 0.26627018158069404]","[0.17477789116856002, 0.19968595918180654, 0.21631549813355377, 0.24959285659861052, 0.7753963514569477]",823.3879715823841,None,[3 2 3 3 3 2 3 3],space,0,2.68646044401612,0.00227875227756158,None,823.6627332455428,None,1,826.3521031947366,None,space,826.8599808342733,None,1.0785403422614763,,,,,,,,,,,,,,,,,,,,,,,,,,,,,,,,,,,,,,,,,,,,,03_SY,3,32,F,2022-11-24_14h20.32.429,dynamic target,2022.1.3,120.068774306666,
1,3,3,0,L,0,120,120,120,,,,,,,None,828.9831357963556,None,828.009039577737,None,828.4752740961849,None,1,[0.009659513301812694],[0.5164893879737065],828.9831357963556,None,[0 2 0 0 0 1 0 1],space,0,2.9574005075046443,0.0027886837560799904,None,828.9914668259098,None,1,831.9472496733542,None,None,832.4468322030386,None,,,,,,,,,,,,,,,,,,,,,,,,,,,,,,,,,,,,,,,,,,,,,,03_SY,3,32,F,2022-11-24_14h20.32.429,dynamic target,2022.1.3,120.068774306666,
1,4,1,1,L,0,121,121,121,,,,,,,None,833.4792772186338,None,832.50516345709,833.5042564846281,832.9796941437417,None,5,"[0.008697057726749335, 0.20838590331186424, 0.25046968216702226, 0.28373966426624975, 0.3087038568137359]","[0.03354098341696954, 0.2417620409560186, 0.27609197496167326, 0.29991796196736686, 0.8089992322165926]",833.4792772186338,None,[0 0 0 2 3 1 3 2],space,0,2.2412655700154573,0.0024519365542801097,None,833.7873479907084,None,1,836.0270831342241,None,None,836.5266509111732,None,,,,,,,,,,,,,,,,,,,,,,,,,,,,,,,,,,,,,,,,,,,,,,03_SY,3,32,F,2022-11-24_14h20.32.429,dynamic target,2022.1.3,120.068774306666,
1,3,3,2,L,0,122,122,122,,,,,,,None,837.559103303136,None,836.5849828066494,None,837.0595109276055,None,1,[0.008623614767202525],[0.5170695552951656],837.559103303136,None,[2 1 0 0 1 0 2 1],space,0,2.2286551890920236,0.0029166476906539174,None,837.575748877669,None,1,839.8071554611088,None,None,840.3067136167099,None,,,,,,,,,,,,,,,,,,,,,,,,,,,,,,,,,,,,,,,,,,,,,,03_SY,3,32,F,2022-11-24_14h20.32.429,dynamic target,2022.1.3,120.068774306666,
1,2,4,2,L,0,123,123,123,,,,,,,None,841.339164084402,None,840.3650775833466,841.3641555374379,840.8395999314944,None,3,"[0.008902633875550237, 0.04185863929706102, 0.10855062080008793]","[0.033598070085645304, 0.10081377366623201, 0.6089617730976897]",841.339164084402,None,[1 3 3 3 0 2 3 0],space,0,2.1011633399793936,0.0023996605596039444,None,841.4474138777041,None,1,843.5539510709514,None,None,844.0535076229933,None,,,,,,,,,,,,,,,,,,,,,,,,,,,,,,,,,,,,,,,,,,,,,,03_SY,3,32,F,2022-11-24_14h20.32.429,dynamic target,2022.1.3,120.068774306666,
1,1,4,2,L,0,124,124,124,,,,,,,None,845.0776041943936,None,844.0868060522116,845.0859311509121,844.5780422864682,None,5,"[0.00824902359454427, 0.08309317378189007, 0.09972848554207303, 0.11637502220946772, 0.14968509325990453]","[0.07509526738795103, 0.09135630868695443, 0.10798809261905262, 0.14165575712650025, 0.6585646358998929]",845.0776041943936,None,[3 2 0 3 0 3 1 2],space,0,0.8406778338994627,0.0025205688398273196,None,845.2358144439531,None,1,846.0767575157151,None,None,846.5763275376464,None,,,,,,,,,,,,,,,,,,,,,,,,,,,,,,,,,,,,,,,,,,,,,,03_SY,3,32,F,2022-11-24_14h20.32.429,dynamic target,2022.1.3,120.068774306666,
1,8,2,2,L,0,125,125,125,,,,,,,None,847.6087927580738,None,846.6346543017353,None,847.1091894783494,None,1,[0.00866274158397573],[0.5170413326723065],847.6087927580738,None,[3 1 0 1 0 3 2 1],space,0,1.7147228348712815,0.0029423046216834337,None,847.6254248627192,None,1,849.3406053624258,None,None,849.8401821192999,None,,,,,,,,,,,,,,,,,,,,,,,,,,,,,,,,,,,,,,,,,,,,,,03_SY,3,32,F,2022-11-24_14h20.32.429,dynamic target,2022.1.3,120.068774306666,
1,6,1,0,L,0,126,126,126,,,,,,,None,850.8809524878561,None,849.9067867710291,None,850.3813716579443,None,1,[0.008611427725554677],[0.5172674343648396],850.8809524878561,None,[1 3 1 2 2 1 1 1],space,0,1.4341713648245786,0.0027242207197559765,None,850.89760832516,None,1,852.3297088644049,None,None,852.8292727928144,None,,,,,,,,,,,,,,,,,,,,,,,,,,,,,,,,,,,,,,,,,,,,,,03_SY,3,32,F,2022-11-24_14h20.32.429,dynamic target,2022.1.3,120.068774306666,
1,7,4,1,L,0,127,127,127,,,,,,,None,853.8617271090461,None,852.8792341149929,853.878369797174,853.3621360163634,None,2,"[0.008708924058737466, 0.7836719941151387]","[0.3499018301736214, 1.2913421332341386]",853.8617271090461,None,[1 1 0 2 2 2 2 2],space,0,1.9990926974733156,0.0025131924739980604,None,854.6527039517441,None,1,856.6509913516893,None,None,857.1505498280019,None,,,,,,,,,,,,,,,,,,,,,,,,,,,,,,,,,,,,,,,,,,,,,,03_SY,3,32,F,2022-11-24_14h20.32.429,dynamic target,2022.1.3,120.068774306666,
1,6,2,2,L,0,128,128,128,,,,,,,None,858.1830051063698,None,857.2005307135896,None,857.6834255593039,None,1,[0.008643819597637048],[0.5172247797181626],858.1830051063698,None,[2 2 0 1 3 0 0 1],space,0,1.69935914468806,0.002450974418024998,None,858.1996436252466,None,1,859.8981852853649,None,None,860.3977553072962,None,,,,,,,,,,,,,,,,,,,,,,,,,,,,,,,,,,,,,,,,,,,,,,03_SY,3,32,F,2022-11-24_14h20.32.429,dynamic target,2022.1.3,120.068774306666,
1,5,1,2,L,0,129,129,129,,,,,,,None,861.4218647071611,None,860.4393919179383,None,860.92231594841,None,2,"[0.008698981997440569, 0.02530254330667958]","[0.016891881057745195, 0.5257711029844359]",861.4218647071611,None,[2 3 0 0 3 0 0 3],space,0,1.3320224686813162,0.002566109889812651,None,861.4468436524421,None,1,862.7790415597356,None,None,863.278611581665,None,,,,,,,,,,,,,,,,,,,,,,,,,,,,,,,,,,,,,,,,,,,,,,03_SY,3,32,F,2022-11-24_14h20.32.429,dynamic target,2022.1.3,120.068774306666,
1,4,4,2,L,0,130,130,130,,,,,,,None,864.3110591629538,None,863.3369091609984,None,863.8114799366012,None,1,[0.008657930908157141],[0.517292129157795],864.3110591629538,None,[2 1 2 0 3 0 3 0],space,0,1.2828795063469443,0.002544301498346613,None,864.327715320971,None,1,865.6099319257501,None,None,866.1094910434856,None,,,,,,,,,,,,,,,,,,,,,,,,,,,,,,,,,,,,,,,,,,,,,,03_SY,3,32,F,2022-11-24_14h20.32.429,dynamic target,2022.1.3,120.068774306666,
1,3,3,2,L,0,131,131,131,,,,,,,None,867.1419309276953,None,866.1678380124085,None,866.6423728683094,None,1,[0.008648630273455638],[0.5174063024969655],867.1419309276953,None,[2 2 3 2 1 2 2 1],space,0,2.484563178211829,0.002538207978432183,None,867.1585835578844,None,1,869.6481190584163,None,None,870.1476897217688,None,,,,,,,,,,,,,,,,,,,,,,,,,,,,,,,,,,,,,,,,,,,,,,03_SY,3,32,F,2022-11-24_14h20.32.429,dynamic target,2022.1.3,120.068774306666,
1,3,1,0,L,0,132,132,132,,,,,,,None,871.1717911038431,None,870.1809968102007,None,870.6722372137083,None,1,[0.0086316325559892],[0.51783092468213],871.1717911038431,None,[3 2 1 2 0 2 2 0],space,0,2.1815955694437434,0.001920838109072065,None,871.1884556003624,None,1,873.3699116696043,None,None,873.8694800879764,None,,,,,,,,,,,,,,,,,,,,,,,,,,,,,,,,,,,,,,,,,,,,,,03_SY,3,32,F,2022-11-24_14h20.32.429,dynamic target,2022.1.3,120.068774306666,
1,2,4,2,L,0,133,133,133,,,,,,,None,874.8935815662642,None,873.9194949689954,None,874.3940176378546,None,1,[0.008643819599456037],[0.5088400951099175],874.8935815662642,None,[2 0 1 3 3 1 0 2],space,0,1.8772710298089805,0.002602671014756197,None,874.9019328006525,None,0,876.7836370365476,None,None,877.2832073791885,None,,,,,,,,,,,,,,,,,,,,,,,,,,,,,,,,,,,,,,,,,,,,,,03_SY,3,32,F,2022-11-24_14h20.32.429,dynamic target,2022.1.3,120.068774306666,
1,1,1,2,L,0,134,134,134,,,,,,,None,878.3156674682305,None,877.3415466510323,878.3406371128767,877.8160799033758,None,8,"[0.00874227806525596, 0.30000134698821057, 0.31665782571690215, 0.37493273073778255, 0.42486400223788223, 0.45855988936637004, 0.49987011179291585, 0.542633478573407]","[0.14228852115411428, 0.30830489155778196, 0.3416739735457668, 0.38382478113089746, 0.4501274187259696, 0.4918317957344698, 0.5342603395820333, 1.050093872290745]",878.3156674682305,None,[3 0 3 3 2 3 2 3],space,0,2.1852067822928802,0.0026385907167423284,None,878.8651718725632,None,1,881.0632837791109,None,None,881.5628595738506,None,,,,,,,,,,,,,,,,,,,,,,,,,,,,,,,,,,,,,,,,,,,,,,03_SY,3,32,F,2022-11-24_14h20.32.429,dynamic target,2022.1.3,120.068774306666,
1,8,1,2,L,0,135,135,135,,,,,,,None,882.5952831017676,None,881.6128164060665,882.611937976937,882.0957141381859,None,5,"[0.14139309430902358, 0.1996689614643401, 0.22462449479826319, 0.27460964585043257, 0.3080124025600526]","[0.1913108959197416, 0.21660381787842198, 0.2662486939007067, 0.2996248315448611, 0.8082439563495427]",882.5952831017676,None,[1 1 1 3 0 1 1 2],space,0,2.370615942971199,0.002398698423348833,None,882.9033628537672,None,1,885.2763251323086,None,None,885.7758887400066,None,,,,,,,,,,,,,,,,,,,,,,,,,,,,,,,,,,,,,,,,,,,,,,03_SY,3,32,F,2022-11-24_14h20.32.429,dynamic target,2022.1.3,120.068774306666,
1,7,1,2,L,0,136,136,136,,,,,,,None,886.8083202857142,None,885.834222880465,None,886.3087513221326,None,1,[0.008657610198497423],[0.5170092615098838],886.8083202857142,None,[1 0 1 0 3 0 3 3],space,0,0.9767387768042681,0.0029150441332603805,None,886.8249745194607,None,1,887.7991476126535,None,None,888.2987157103141,None,,,,,,,,,,,,,,,,,,,,,,,,,,,,,,,,,,,,,,,,,,,,,,03_SY,3,32,F,2022-11-24_14h20.32.429,dynamic target,2022.1.3,120.068774306666,
1,6,1,2,L,0,137,137,137,,,,,,,None,889.3311722715298,None,888.3570213074381,None,888.8315763681712,None,1,[0.008694492034919676],[0.5170653860441234],889.3311722715298,None,[2 1 3 0 3 0 2 2],space,0,1.0626779455069482,0.003008050503922277,None,889.3478133560984,None,1,890.413562124726,None,None,890.9131289395407,None,,,,,,,,,,,,,,,,,,,,,,,,,,,,,,,,,,,,,,,,,,,,,,03_SY,3,32,F,2022-11-24_14h20.32.429,dynamic target,2022.1.3,120.068774306666,
1,5,2,2,L,0,138,138,138,,,,,,,None,891.9455611266712,None,890.9714691735189,891.9705426376477,891.4460126886333,None,5,"[0.016925876489040093, 0.05852570150818792, 0.10032500915622222, 0.11716044496824907, 0.13349396709418215]","[0.04220276286650915, 0.09219881811259256, 0.10838545431579405, 0.12545789601608703, 0.6335683721899841]",891.9455611266712,None,[1 0 0 3 0 0 3 0],space,0,0.7151330250344472,0.002747953380094259,None,892.0787994866041,None,0,892.8031757506087,None,None,893.3027502625025,None,,,,,,,,,,,,,,,,,,,,,,,,,,,,,,,,,,,,,,,,,,,,,,03_SY,3,32,F,2022-11-24_14h20.32.429,dynamic target,2022.1.3,120.068774306666,
1,4,2,2,L,0,139,139,139,,,,,,,None,894.3351757146884,None,893.3610789508621,894.3601610742026,893.8356003368754,None,4,"[0.00865568592780619, 0.43317909242432506, 0.46644362242477655, 0.6335962741013645]","[0.28330381717387354, 0.4581554720134591, 0.4748911665119522, 1.1413600610121648]",894.3351757146884,None,[0 2 3 0 3 3 1 2],space,0,2.041290649664006,0.0030622507656516973,None,894.9762971662549,None,1,897.0162138966898,None,None,897.5157691658858,None,,,,,,,,,,,,,,,,,,,,,,,,,,,,,,,,,,,,,,,,,,,,,,03_SY,3,32,F,2022-11-24_14h20.32.429,dynamic target,2022.1.3,120.068774306666,
1,3,1,2,L,0,140,140,140,,,,,,,None,898.5482106536547,None,897.574054878889,898.5731847882616,898.0486388036679,None,3,"[0.07480855119865737, 0.09159203172748676, 0.15811628105439013]","[0.0831977257712424, 0.14966039846513013, 0.6663579282812861]",898.5482106536547,None,[0 3 3 1 1 1 3 1],space,0,2.5430196060115122,0.002929476155259181,None,898.7147315034381,None,1,901.2625508889159,None,None,901.7621109687859,None,,,,,,,,,,,,,,,,,,,,,,,,,,,,,,,,,,,,,,,,,,,,,,03_SY,3,32,F,2022-11-24_14h20.32.429,dynamic target,2022.1.3,120.068774306666,
1,2,1,2,L,0,141,141,141,,,,,,,None,902.7945819620236,None,901.8204563341496,None,902.2949793237203,None,1,[0.008660817313284497],[0.5169993194504059],902.7945819620236,None,[1 1 2 3 0 0 1 2],space,0,1.565887948117961,0.0031016982975415885,None,902.8112143873786,None,1,904.3765334024356,None,None,904.8761008586732,None,,,,,,,,,,,,,,,,,,,,,,,,,,,,,,,,,,,,,,,,,,,,,,03_SY,3,32,F,2022-11-24_14h20.32.429,dynamic target,2022.1.3,120.068774306666,
1,1,2,2,L,0,142,142,142,,,,,,,None,905.908544912134,None,904.9260653879664,905.9251853552796,905.4089765899753,None,10,"[0.00809860984190891, 0.02504180475807516, 0.04962467119003122, 0.07461259639785567, 0.09167477532537305, 0.1166142730780848, 0.15823783075757092, 0.1751925712924276, 0.25777132363327837, 0.883584888837504]","[0.016250457814749097, 0.03399960103342892, 0.06658742951549357, 0.08351202315679984, 0.10816352187430311, 0.1498153021766484, 0.16649455142942315, 0.24973396970926842, 0.6418741617399064, 1.39078614756545]",905.908544912134,None,[1 2 2 1 1 0 2 1],space,0,2.7455111504477827,0.0025119096262642415,None,906.7994535715407,None,1,909.5470798244805,None,None,910.0466524121036,None,,,,,,,,,,,,,,,,,,,,,,,,,,,,,,,,,,,,,,,,,,,,,,03_SY,3,32,F,2022-11-24_14h20.32.429,dynamic target,2022.1.3,120.068774306666,
1,8,2,2,L,0,143,143,143,,,,,,,None,911.0707512284844,None,910.079955010573,None,910.5711941312329,None,1,[0.009062348264706088],[0.5176792280853988],911.0707512284844,None,[3 1 3 2 2 1 1 0],space,0,5.257159396509451,0.0022511710776598193,None,911.087403537962,None,1,916.3495509716595,None,None,916.8491213143004,None,,,,,,,,,,,,,,,,,,,,,,,,,,,,,,,,,,,,,,,,,,,,,,03_SY,3,32,F,2022-11-24_14h20.32.429,dynamic target,2022.1.3,120.068774306666,
1,7,2,2,L,0,144,144,144,,,,,,,None,917.8815493321817,None,916.9074467955452,None,917.381982292869,None,1,[0.00866883510570915],[0.5176914151288656],917.8815493321817,None,[3 2 0 2 0 3 2 3],space,0,2.5736222295599873,0.0022790729908592766,None,917.8982163943929,None,1,920.4709990102838,None,None,920.9705696736362,None,,,,,,,,,,,,,,,,,,,,,,,,,,,,,,,,,,,,,,,,,,,,,,03_SY,3,32,F,2022-11-24_14h20.32.429,dynamic target,2022.1.3,120.068774306666,
1,6,2,2,L,0,145,145,145,,,,,,,None,922.0030150099446,None,921.0289076626341,None,921.5034312936277,None,1,[0.008607899897469906],[0.5169431949161662],922.0030150099446,None,[3 2 3 3 0 2 3 2],space,0,4.516657752221363,0.0029544916633312823,None,922.0196846378476,None,1,926.5407714269022,None,None,927.0403382417169,None,,,,,,,,,,,,,,,,,,,,,,,,,,,,,,,,,,,,,,,,,,,,,,03_SY,3,32,F,2022-11-24_14h20.32.429,dynamic target,2022.1.3,120.068774306666,
1,5,4,2,L,0,146,146,146,,,,,,,None,928.0727685045786,None,927.0902841697371,928.0894355667897,927.5732197458292,None,2,"[0.00867108008787909, 0.758178306681657]","[0.2666935209199437, 1.2584707956793864]",928.0727685045786,None,[3 2 3 3 2 3 3 3],space,0,1.3373696935341286,0.0024573886512371246,None,928.8304734409085,None,1,930.1709768170385,None,None,930.6705760237271,None,,,,,,,,,,,,,,,,,,,,,,,,,,,,,,,,,,,,,,,,,,,,,,03_SY,3,32,F,2022-11-24_14h20.32.429,dynamic target,2022.1.3,120.068774306666,
1,4,1,2,L,0,147,147,147,,,,,,,None,931.6946639359139,None,930.7038744529455,931.7029754982723,931.1950792574626,None,6,"[0.008236515839598724, 0.0832022157319443, 0.15805406299841707, 0.3502735349411523, 0.5750051474205975, 0.6334016021464777]","[0.07476268943537434, 0.14128758018523513, 0.34151137275330257, 0.5671079444746283, 0.6248241698540369, 1.1414328625487542]",931.6946639359139,None,[0 3 2 0 1 1 3 1],space,0,1.447014903096715,0.0023688722430961207,None,932.3357815389409,None,1,933.7845273320054,None,None,934.2841031267451,None,,,,,,,,,,,,,,,,,,,,,,,,,,,,,,,,,,,,,,,,,,,,,,03_SY,3,32,F,2022-11-24_14h20.32.429,dynamic target,2022.1.3,120.068774306666,
1,3,4,2,L,0,148,148,148,,,,,,,None,935.3082288829028,None,934.3174134222936,935.3165510287454,934.8086467701451,None,30,"[0.008267945579063962, 0.02485867842369771, 0.08361080233589746, 0.10018582031261758, 0.11745485823485069, 0.13371429597646056, 0.1501379380679282, 0.20015195316591416, 0.3329403546940739, 0.3674813169436675, 0.38284115858914447, 0.41626219586032676, 0.44113049563384266, 0.49941887054228573, 0.5338889555241622, 0.5674725935878087, 0.5835072124828002, 0.6253860566121148, 0.6668813296437293, 0.6913994123278826, 0.7089869168885343, 0.7417181034652458, 0.7753180978197634, 0.8411980375003623, 0.8752492731055099, 0.9001704902966594, 0.916917730412024, 0.933358370219139, 0.9747606368819106, 1.0586793223737914]","[0.016388684523917618, 0.03304195613418415, 0.09171775068170973, 0.10800444891174266, 0.12502301105814695, 0.1416826969016256, 0.17497063885093667, 0.20828070990137348, 0.3410963719161373, 0.374434986300912, 0.39147214972217625, 0.4243922354435199, 0.48264533207293425, 0.5084462612394418, 0.550097079407351, 0.5754179032755928, 0.6002339270544326, 0.6336200067598838, 0.675062041662386, 0.7000390626744775, 0.7172622388352465, 0.7501467255660828, 0.783042116490833, 0.8669184680493345, 0.8914336643283605, 0.90866838610782, 0.9250695783848641, 0.966844191238124, 1.0503760985175177, 1.5659742288953566]",935.3082288829028,None,[0 0 2 2 3 3 1 2],space,0,3.6005145403705683,0.0025257002271246165,None,936.3739664266232,None,1,939.9791963993048,None,None,940.4787600070028,None,,,,,,,,,,,,,,,,,,,,,,,,,,,,,,,,,,,,,,,,,,,,,,03_SY,3,32,F,2022-11-24_14h20.32.429,dynamic target,2022.1.3,120.068774306666,
1,2,3,2,L,0,149,149,149,,,,,,,None,941.5112091918509,None,940.5287190842009,941.5278502764213,941.0116357383067,None,6,"[0.06669326435076073, 0.0916433455877268, 0.11664955135711352, 0.15833917563031719, 0.1836824493148015, 0.20146398440738267]","[0.08374036983332189, 0.10873438856106077, 0.14191489211589214, 0.16687683968302736, 0.19186765129416017, 0.7085231678884156]",941.5112091918509,None,[0 2 3 1 3 1 1 1],space,0,4.92767695450857,0.002577655508503085,None,941.7193507129086,None,1,946.6484461842683,None,None,947.1480181304685,None,,,,,,,,,,,,,,,,,,,,,,,,,,,,,,,,,,,,,,,,,,,,,,03_SY,3,32,F,2022-11-24_14h20.32.429,dynamic target,2022.1.3,120.068774306666,
1,1,3,2,L,0,150,150,150,,,,,,,None,948.1804528832927,None,947.197977528378,948.1971180212349,947.6808807125944,None,8,"[0.05122758787001658, 0.10889089583179157, 0.125127883758978, 0.15054363826857298, 0.18348841878287203, 0.20842150230419065, 0.2250215357853449, 0.2500133095327328]","[0.1000450279116194, 0.11717968766606646, 0.14259672502157628, 0.1666587557810999, 0.1999489427107619, 0.21715095190484135, 0.23326863510919793, 0.7504610229552782]",948.1804528832927,None,[1 2 0 3 1 3 1 3],space,0,2.759486159317021,0.002411847601251793,None,948.430252598886,None,1,951.1945279541869,None,None,951.6941127288517,None,,,,,,,,,,,,,,,,,,,,,,,,,,,,,,,,,,,,,,,,,,,,,,03_SY,3,32,F,2022-11-24_14h20.32.429,dynamic target,2022.1.3,120.068774306666,
1,8,4,2,L,0,151,151,151,,,,,,,None,952.7265327289406,None,951.7524282680351,952.7515103913756,952.2269756316891,None,6,"[0.10810226595458516, 0.15011612967646215, 0.1913702275705873, 0.22507830174254195, 0.25834347316595085, 0.2831979823386064]","[0.13315914416125452, 0.1580405931108544, 0.20829482121189358, 0.23338601556133654, 0.2745079802662076, 0.7833092692708306]",952.7265327289406,None,[0 2 0 1 1 0 3 1],space,0,4.644369288793314,0.002632176483530202,None,953.0096300078312,None,1,957.6556282003003,None,None,958.1551959772494,None,,,,,,,,,,,,,,,,,,,,,,,,,,,,,,,,,,,,,,,,,,,,,,03_SY,3,32,F,2022-11-24_14h20.32.429,dynamic target,2022.1.3,120.068774306666,
1,1,1,1,L,0,152,152,152,,,,,,,None,959.1876281643799,None,958.205128435382,959.2042977922847,958.6880758778025,None,1,[0.8666163577036059],[1.3741117089884938],959.1876281643799,None,[1 3 2 3 0 2 3 2],space,0,3.5602132767035073,0.0032880317485251,None,960.0618886835618,None,1,963.62549028789,None,None,964.1250449156612,None,,,,,,,,,,,,,,,,,,,,,,,,,,,,,,,,,,,,,,,,,,,,,,03_SY,3,32,F,2022-11-24_14h20.32.429,dynamic target,2022.1.3,120.068774306666,
1,8,3,2,L,0,153,153,153,,,,,,,None,965.1574854412956,None,964.1750296497885,None,964.6579312304475,None,1,[0.008721431810045033],[0.517238570319023],965.1574854412956,None,[0 0 0 1 0 3 3 0],space,0,3.3918627671246213,0.002699846636460279,None,965.174151220659,None,1,968.5712233159902,None,None,969.0707904515164,None,,,,,,,,,,,,,,,,,,,,,,,,,,,,,,,,,,,,,,,,,,,,,,03_SY,3,32,F,2022-11-24_14h20.32.429,dynamic target,2022.1.3,120.068774306666,
1,7,3,2,L,0,154,154,154,,,,,,,None,970.1032245629176,None,969.1207668471416,None,969.6036523922194,None,1,[0.008620086937298765],[0.5170410119590088],970.1032245629176,None,[3 1 0 2 0 1 1 3],space,0,1.0055479809725512,0.003026010354005848,None,970.1198762309705,None,1,971.1273590745022,None,None,971.6269274928743,None,,,,,,,,,,,,,,,,,,,,,,,,,,,,,,,,,,,,,,,,,,,,,,03_SY,3,32,F,2022-11-24_14h20.32.429,dynamic target,2022.1.3,120.068774306666,
1,6,3,2,L,0,155,155,155,,,,,,,None,972.6593747534516,None,971.6852635576015,972.6843469637897,972.1597859057492,None,6,"[0.7922279387294111, 1.07507442113274, 1.1169186284059833, 1.1335186618889566, 1.1754077687910467, 1.216748138109324]","[0.9342101802849356, 1.1077831578932091, 1.1254126756775804, 1.1670766430215735, 1.2078410142694338, 1.7247053141272772]",972.6593747534516,None,[3 2 3 3 0 3 3 3],space,0,0.6970917135276977,0.0022976742639002623,None,973.8832920791283,None,1,974.5827105648168,None,None,975.082281228171,None,,,,,,,,,,,,,,,,,,,,,,,,,,,,,,,,,,,,,,,,,,,,,,03_SY,3,32,F,2022-11-24_14h20.32.429,dynamic target,2022.1.3,120.068774306666,
1,5,2,2,L,0,156,156,156,,,,,,,None,976.1063854966505,None,975.1155886373144,976.1147127738786,975.6068277579743,None,20,"[0.08392830684169894, 0.11719283684215043, 0.16716997010371415, 0.19212005133886123, 0.2083701884439506, 0.24208788396390446, 0.29209227771389124, 0.31720143191341776, 0.34166723860289494, 0.35869189427103265, 0.38323146463153535, 0.44990933482404216, 0.47491008849647187, 0.49160954258150014, 0.5082461371894169, 0.5677038266676391, 0.6002778645488434, 0.6172316429474449, 0.6336966568378557, 1.2168549350790272]","[0.10043565466548898, 0.12569265692218323, 0.1757653622462385, 0.20036522639384202, 0.2169915582289832, 0.258639489991765, 0.2999683136913518, 0.3333505448572396, 0.3498806632051128, 0.3748066910702619, 0.39157926740517723, 0.45855475798089174, 0.48348623794299783, 0.5001337367466476, 0.5501993864145334, 0.5922812410008191, 0.6090025034754944, 0.6254803458305105, 0.9337226986208407, 1.7244006380879]",976.1063854966505,None,[2 1 2 3 3 2 3 1],space,0,1.410972689747723,0.0029134405758668436,None,977.3303435527014,None,0,978.7457901789112,None,None,979.2453595594177,None,,,,,,,,,,,,,,,,,,,,,,,,,,,,,,,,,,,,,,,,,,,,,,03_SY,3,32,F,2022-11-24_14h20.32.429,dynamic target,2022.1.3,120.068774306666,
1,4,4,2,L,0,157,157,157,,,,,,,None,980.2777872565875,None,979.2953205608846,None,979.7782490813206,None,1,[0.008741636642298545],[0.5171766729745286],980.2777872565875,None,[3 2 2 3 3 3 1 2],space,0,2.3986111810445436,0.0027671960760926595,None,980.2944504702591,None,1,982.7007013321709,None,None,983.2002867482586,None,,,,,,,,,,,,,,,,,,,,,,,,,,,,,,,,,,,,,,,,,,,,,,03_SY,3,32,F,2022-11-24_14h20.32.429,dynamic target,2022.1.3,120.068774306666,
1,3,4,2,L,0,158,158,158,,,,,,,None,984.2327170111203,None,983.2502371662431,None,983.7331592724458,None,1,[0.00814318875745812],[0.5169701346912916],984.2327170111203,None,[0 1 3 0 1 0 0 0],space,0,2.6182870955381077,0.0020504056046775077,None,984.2493706034438,None,1,986.8721223348057,None,None,987.3717000538143,None,,,,,,,,,,,,,,,,,,,,,,,,,,,,,,,,,,,,,,,,,,,,,,03_SY,3,32,F,2022-11-24_14h20.32.429,dynamic target,2022.1.3,120.068774306666,
1,2,4,2,L,0,159,159,159,,,,,,,None,988.4041232610198,None,987.4216350776405,988.4207742876497,987.9045658430568,None,8,"[0.1998360522193252, 0.22469056139379973, 0.24966148888415773, 0.266277878659821, 0.3418766632912593, 0.3662061675422592, 0.39988441553214216, 0.4327698643974145]","[0.20837179200134415, 0.23286902843028656, 0.25827580301483977, 0.27492266039371316, 0.34986879687676264, 0.37438495529022475, 0.42481493335981213, 0.9331252128722554]",988.4041232610198,None,[3 2 2 2 0 0 2 3],space,0,2.943183040653821,0.002757254016614752,None,988.8370954944494,None,1,991.7845565167627,None,None,992.2841236522888,None,,,,,,,,,,,,,,,,,,,,,,,,,,,,,,,,,,,,,,,,,,,,,,03_SY,3,32,F,2022-11-24_14h20.32.429,dynamic target,2022.1.3,120.068774306666,
1,1,4,2,L,0,160,160,160,,,,,,,None,993.3165731578483,None,992.3340824087736,None,992.8169855929918,None,1,[0.008621690496511292],[0.5174444671793026],993.3165731578483,None,[3 2 3 0 3 1 1 0],space,0,3.917902947157927,0.0021552783055085456,None,993.333213600994,None,1,997.2548438679605,None,None,997.7544110034867,None,,,,,,,,,,,,,,,,,,,,,,,,,,,,,,,,,,,,,,,,,,,,,,03_SY,3,32,F,2022-11-24_14h20.32.429,dynamic target,2022.1.3,120.068774306666,
1,2,2,1,L,0,161,161,161,,,,,,,None,998.786843832042,None,997.7960533869391,None,998.2872739063241,None,1,[0.009539887867504149],[0.5175214379687532],998.786843832042,None,[0 1 3 3 1 0 0 3],space,0,3.887814745048672,0.002469575691065984,None,998.8034964622293,None,1,1002.6918217895309,None,None,1003.1913966221362,None,,,,,,,,,,,,,,,,,,,,,,,,,,,,,,,,,,,,,,,,,,,,,,03_SY,3,32,F,2022-11-24_14h20.32.429,dynamic target,2022.1.3,120.068774306666,
1,1,2,2,L,0,162,162,162,,,,,,,None,1004.223838751328,None,1003.2497240276498,1004.248802623164,1003.7242569592818,None,10,"[0.008676852896314813, 0.22569021951494506, 0.25831492983161297, 0.2758687596742675, 0.2916493749653455, 0.32495591818769753, 0.3671150642730936, 0.38366634958947543, 0.4249268617149937, 0.4498512860209303]","[0.034105435870515066, 0.24996648563501367, 0.2669430345613364, 0.28321113151650934, 0.29985317821956414, 0.34147737732382666, 0.375257932320892, 0.4171213822937716, 0.44178121951335925, 0.9589014472439885]",1004.223838751328,None,[1 2 0 3 2 0 1 3],space,0,3.2733437877304823,0.0023342353888438083,None,1004.6817809501135,None,1,1007.9539685818054,None,None,1008.4535251338491,None,,,,,,,,,,,,,,,,,,,,,,,,,,,,,,,,,,,,,,,,,,,,,,03_SY,3,32,F,2022-11-24_14h20.32.429,dynamic target,2022.1.3,120.068774306666,
1,8,4,2,L,0,163,163,163,,,,,,,None,1009.4859598866733,None,1008.5034845317568,None,1008.9863999030167,None,1,[0.008631311844510492],[0.5174358079657395],1009.4859598866733,None,[3 2 3 3 0 1 2 0],space,0,2.2117379718183656,0.0017482952589489287,None,1009.5026247039023,None,1,1011.7173796192892,None,None,1012.2169499619301,None,,,,,,,,,,,,,,,,,,,,,,,,,,,,,,,,,,,,,,,,,,,,,,03_SY,3,32,F,2022-11-24_14h20.32.429,dynamic target,2022.1.3,120.068774306666,
1,7,2,2,L,0,164,164,164,,,,,,,None,1013.2493994674896,None,1012.2752821781178,1013.2743726399622,1012.7498131854809,None,1,[0.8091624744301953],[1.316591438409887],1013.2493994674896,None,[2 3 3 2 1 1 0 2],space,0,1.937607148418465,0.0024987604501802707,None,1014.0653603868541,None,1,1016.0053382449241,None,None,1016.5049207746067,None,,,,,,,,,,,,,,,,,,,,,,,,,,,,,,,,,,,,,,,,,,,,,,03_SY,3,32,F,2022-11-24_14h20.32.429,dynamic target,2022.1.3,120.068774306666,
1,1,1,0,L,0,165,165,165,,,,,,,None,1017.537354244585,None,1016.5632456144285,1017.5623322277334,1017.0377965059106,None,5,"[0.008665627989103086, 0.24169020155568433, 0.4587603341315116, 0.5173251624564728, 0.6258065095480561]","[0.034248793965161894, 0.25831877837117645, 0.46762352047699096, 0.6169632073215325, 1.1332370770869602]",1017.537354244585,None,[1 2 2 1 3 0 3 2],space,0,3.1924503749560245,0.002713957946980372,None,1018.1701631716569,None,1,1021.3674033840198,None,None,1021.8669682745638,None,,,,,,,,,,,,,,,,,,,,,,,,,,,,,,,,,,,,,,,,,,,,,,03_SY,3,32,F,2022-11-24_14h20.32.429,dynamic target,2022.1.3,120.068774306666,
1,8,3,2,L,0,166,166,166,,,,,,,None,1022.9077267767898,None,1021.9336335407897,None,1022.4081706416728,None,1,[0.008663703718411853],[0.5169059923682653],1022.9077267767898,None,[1 1 0 2 2 2 3 2],space,0,1.9108100889570778,0.0031369765729323262,None,1022.9243871040562,None,1,1024.8394100702153,None,None,1025.33897688503,None,,,,,,,,,,,,,,,,,,,,,,,,,,,,,,,,,,,,,,,,,,,,,,03_SY,3,32,F,2022-11-24_14h20.32.429,dynamic target,2022.1.3,120.068774306666,
1,7,4,2,L,0,167,167,167,,,,,,,None,1026.3714257491647,None,1025.3973062148125,1026.396410467256,1025.8718474849466,None,16,"[0.11647957419882005, 0.20801131214102497, 0.29138767428412393, 0.33293233690346824, 0.3749048288264021, 0.3911825471313932, 0.43285581511190685, 0.4665286110048328, 0.5252335903096537, 0.5413628191327007, 0.5586905472828221, 0.6167945130091539, 0.6335363010275614, 0.6585431482217246, 0.6749885987028392, 0.7254079932881723]","[0.13313509079125652, 0.2176717875772738, 0.2995042439779354, 0.34184330928292184, 0.38286521196278045, 0.40781753818009747, 0.4414701292407699, 0.47473369710678526, 0.5336910764563072, 0.550102531506127, 0.6000508007218741, 0.6250698349558661, 0.6506530009319249, 0.6670195563528978, 0.7166240227124945, 1.232923228693835]",1026.3714257491647,None,[0 1 3 3 0 3 3 2],space,0,5.841207328785458,0.002516078877306427,None,1027.1041321768043,None,1,1032.9490886337862,None,None,1033.448662504257,None,,,,,,,,,,,,,,,,,,,,,,,,,,,,,,,,,,,,,,,,,,,,,,03_SY,3,32,F,2022-11-24_14h20.32.429,dynamic target,2022.1.3,120.068774306666,
1,6,1,2,L,0,168,168,168,,,,,,,None,1034.472778639065,None,1033.4819622163213,1034.4811120098148,1033.9731907534988,None,4,"[0.008685512109877891, 0.0415549253939389, 0.07474376745085465, 0.091433279476405]","[0.017197198520079837, 0.058024749958349275, 0.08299022535175027, 0.591479141237869]",1034.472778639065,None,[1 3 3 1 2 1 2 0],space,0,2.205708914061688,0.002967320129755535,None,1034.5643652186955,None,1,1036.7708082510107,None,None,1037.2703481260485,None,,,,,,,,,,,,,,,,,,,,,,,,,,,,,,,,,,,,,,,,,,,,,,03_SY,3,32,F,2022-11-24_14h20.32.429,dynamic target,2022.1.3,120.068774306666,
1,5,1,2,L,0,169,169,169,,,,,,,None,1038.3028027629935,None,1037.336976510438,1038.3360993641563,1037.8032257816212,None,1,[0.2915675935018953],[0.8001863975932793],1038.3028027629935,None,[0 0 2 0 2 0 3 2],space,0,3.7191643701062276,0.0027498776489665033,None,1038.6025491442451,None,1,1042.3243433589923,None,None,1042.8239095323822,None,,,,,,,,,,,,,,,,,,,,,,,,,,,,,,,,,,,,,,,,,,,,,,03_SY,3,32,F,2022-11-24_14h20.32.429,dynamic target,2022.1.3,120.068774306666,
1,4,1,2,L,0,170,170,170,,,,,,,None,1043.856351661574,None,1042.882250728495,1043.8813309275683,1043.3568048270936,None,7,"[0.041892634728355915, 0.07586722025735071, 0.09185180813983607, 0.13349909847966046, 0.18349771941939252, 0.2583518116680352, 0.3332787054532673]","[0.06685939296949073, 0.08357392049947521, 0.10851149398331472, 0.14178340035141446, 0.24994018728284573, 0.3257612250672537, 0.8335987756508985]",1043.856351661574,None,[1 1 2 2 1 2 2 2],space,0,2.0680238875120267,0.002565147755376529,None,1044.1893911161587,None,1,1046.2626140691045,None,None,1046.7621824874766,None,,,,,,,,,,,,,,,,,,,,,,,,,,,,,,,,,,,,,,,,,,,,,,03_SY,3,32,F,2022-11-24_14h20.32.429,dynamic target,2022.1.3,120.068774306666,
1,3,1,2,L,0,171,171,171,,,,,,,None,1047.794627823785,None,1046.8121482996175,1047.8112798125494,1047.2950466731618,None,3,"[0.09144065584223426, 0.11684133690687304, 0.19973663161727018]","[0.10804197217112232, 0.1250310288505716, 0.7082075876533054]",1047.794627823785,None,[3 2 3 0 3 1 3 2],space,0,2.3502738462993875,0.002837752632331103,None,1048.0027821733074,None,1,1050.350765506566,None,None,1050.8503329628036,None,,,,,,,,,,,,,,,,,,,,,,,,,,,,,,,,,,,,,,,,,,,,,,03_SY,3,32,F,2022-11-24_14h20.32.429,dynamic target,2022.1.3,120.068774306666,
1,6,3,0,L,0,172,172,172,,,,,,,None,1051.882770602033,None,1050.9002910778654,1051.8994270807598,1051.3831888099867,None,6,"[0.22504013705838588, 0.31703017190739047, 0.35007405231226585, 0.3670210957679956, 0.4006993437596975, 0.42485855013910623]","[0.27529468587272277, 0.32485329046903644, 0.35817843496442947, 0.3918621350530884, 0.4168468531443068, 0.9250022289452318]",1051.882770602033,None,[3 3 2 2 1 2 2 3],space,0,0.9254929083708703,0.0030122197549644625,None,1052.3074085025764,None,1,1053.2315986896992,None,None,1053.73117865369,None,,,,,,,,,,,,,,,,,,,,,,,,,,,,,,,,,,,,,,,,,,,,,,03_SY,3,32,F,2022-11-24_14h20.32.429,dynamic target,2022.1.3,120.068774306666,
1,5,4,2,L,0,173,173,173,,,,,,,None,1054.7636275178265,None,1053.7811598599892,None,1054.2640396322586,None,1,[0.00862425619015994],[0.5172979019698687],1054.7636275178265,None,[2 0 2 2 1 1 2 3],space,0,2.4521183871147514,0.0026998466346412897,None,1054.7802807894368,None,1,1057.2364917868945,None,None,1057.7360608466913,None,,,,,,,,,,,,,,,,,,,,,,,,,,,,,,,,,,,,,,,,,,,,,,03_SY,3,32,F,2022-11-24_14h20.32.429,dynamic target,2022.1.3,120.068774306666,
1,4,4,2,L,0,174,174,174,,,,,,,None,1058.7685228600021,None,1057.794393704302,1058.7934892975318,1058.2689240702402,None,2,"[0.191306085245742, 0.26625510813391884]","[0.2578309759956028, 0.7665902517765062]",1058.7685228600021,None,[2 3 2 0 3 2 0 3],space,0,1.781661122899095,0.00261678232527629,None,1059.0349434553336,None,1,1060.8167270994254,None,None,1061.3163099498213,None,,,,,,,,,,,,,,,,,,,,,,,,,,,,,,,,,,,,,,,,,,,,,,03_SY,3,32,F,2022-11-24_14h20.32.429,dynamic target,2022.1.3,120.068774306666,
1,3,2,2,L,0,175,175,175,,,,,,,None,1062.3487395712582,None,1061.3579324491511,None,1061.8491831154297,None,1,[0.007675591215956956],[0.5167023404901556],1062.3487395712582,None,[3 3 3 0 1 2 0 0],space,0,2.7545465589355445,0.0021087751192681026,None,1062.3653960499869,None,1,1065.121365615736,None,None,1065.620934675533,None,,,,,,,,,,,,,,,,,,,,,,,,,,,,,,,,,,,,,,,,,,,,,,03_SY,3,32,F,2022-11-24_14h20.32.429,dynamic target,2022.1.3,120.068774306666,
1,2,1,2,L,0,176,176,176,,,,,,,None,1066.6533639762583,None,1065.6792524596967,None,1066.1538155382204,None,1,[0.009305447671067668],[0.517439656505303],1066.6533639762583,None,[3 3 1 2 2 1 1 0],space,0,2.769260808090621,0.0020962673661415465,None,1066.6700230206789,None,1,1069.4426404059432,None,None,1069.9422091450267,None,,,,,,,,,,,,,,,,,,,,,,,,,,,,,,,,,,,,,,,,,,,,,,03_SY,3,32,F,2022-11-24_14h20.32.429,dynamic target,2022.1.3,120.068774306666,
1,3,2,1,L,0,177,177,177,,,,,,,None,1070.9663268833938,None,1069.9755011600137,1070.974661216278,1070.466746053482,None,1,[0.30852554115335806],[0.8165593672492832],1070.9663268833938,None,[1 2 1 1 0 2 1 3],space,0,5.16548654545295,0.00270209161863022,None,1071.2827249326983,None,1,1076.4449492089007,None,None,1076.9444954981698,None,,,,,,,,,,,,,,,,,,,,,,,,,,,,,,,,,,,,,,,,,,,,,,03_SY,3,32,F,2022-11-24_14h20.32.429,dynamic target,2022.1.3,120.068774306666,
1,2,3,2,L,0,178,178,178,,,,,,,None,1077.9686036151888,None,1076.9861433337192,1077.9852655460145,1077.4690455558011,None,2,"[0.02534006656787824, 0.07520014008696307]","[0.041968322671891656, 0.5757864009301557]",1077.9686036151888,None,[3 3 0 3 0 2 1 0],space,0,4.338351391803371,0.0016241798621194903,None,1078.0436001033959,None,1,1082.381492886936,None,None,1082.8810603431737,None,,,,,,,,,,,,,,,,,,,,,,,,,,,,,,,,,,,,,,,,,,,,,,03_SY,3,32,F,2022-11-24_14h20.32.429,dynamic target,2022.1.3,120.068774306666,
1,1,4,2,L,0,179,179,179,,,,,,,None,1083.913504075923,None,1082.9310261553146,1083.9301445190704,1083.4139319052247,None,11,"[0.04302667101910629, 0.10843869244672533, 0.19168709065161238, 0.2166198534596333, 0.23374072261503898, 0.2666447727533523, 0.29199413995775103, 0.3082144508807687, 0.3253064559885388, 0.35817811425476975, 0.3831063871002698]","[0.05012979199273104, 0.11679226802698395, 0.19982001663811388, 0.22527393583004596, 0.24192143463369575, 0.27539699287990516, 0.300184473324407, 0.31691247074377316, 0.33305132091481937, 0.3668613813824777, 0.883442813590591]",1083.913504075923,None,[2 3 0 3 2 1 2 3],space,0,5.125966856005107,0.002681245361600304,None,1084.296512325267,None,1,1089.4254124191084,None,space,1089.9333198848253,None,6.358482139517946,,,,,,,,,,,,,,,,,,,,,,,,,,,,,,,,,,,,,,,,,,,,,03_SY,3,32,F,2022-11-24_14h20.32.429,dynamic target,2022.1.3,120.068774306666,
1,8,2,2,L,0,180,180,180,,,,,,,None,1097.3352716074642,None,1096.3611613737485,1097.3602563255554,1096.8357045681514,None,3,"[0.11692953260171635, 0.13314695711960667, 0.14976334689526993]","[0.12478215663213632, 0.14140271565702278, 0.6587156910718477]",1097.3352716074642,None,[1 2 1 2 1 2 0 1],space,0,3.3207856956305477,0.002566109889812651,None,1097.4934693492687,None,0,1100.8239402244835,None,None,1101.323490362294,None,,,,,,,,,,,,,,,,,,,,,,,,,,,,,,,,,,,,,,,,,,,,,,03_SY,3,32,F,2022-11-24_14h20.32.429,dynamic target,2022.1.3,120.068774306666,
1,7,2,2,L,0,181,181,181,,,,,,,None,1102.364277087143,None,1101.3817921108785,1102.3809098332094,1101.864689842998,None,1,[0.7501566676273796],[1.2576327762144501],1102.364277087143,None,[1 1 2 0 2 2 2 1],space,0,2.2361319391038705,0.0030311417394841556,None,1103.1219538008481,None,1,1105.3616902272097,None,None,1105.8612567213129,None,,,,,,,,,,,,,,,,,,,,,,,,,,,,,,,,,,,,,,,,,,,,,,03_SY,3,32,F,2022-11-24_14h20.32.429,dynamic target,2022.1.3,120.068774306666,
1,6,4,2,L,0,182,182,182,,,,,,,None,1106.8936892291567,None,1105.911221250608,1106.910341859344,1106.3941314904805,None,2,"[0.00863516038407397, 0.8417509443352174]","[0.2919534095817653, 1.341935994940286]",1106.8936892291567,None,[3 1 0 1 2 3 1 3],space,0,1.911057999041077,0.002319161942068604,None,1107.7346460915178,None,1,1109.6496597570404,None,None,1110.1492288168372,None,,,,,,,,,,,,,,,,,,,,,,,,,,,,,,,,,,,,,,,,,,,,,,03_SY,3,32,F,2022-11-24_14h20.32.429,dynamic target,2022.1.3,120.068774306666,
1,5,4,2,L,0,183,183,183,,,,,,,None,1111.1899876397729,None,1110.1991901390156,None,1110.6904363153299,None,1,[0.008663383006933145],[0.5174354872542608],1111.1899876397729,None,[1 1 0 2 0 3 1 3],space,0,2.438371083497259,0.0023246140390256187,None,1111.206644439213,None,1,1113.6462172385054,None,None,1114.1457843740316,None,,,,,,,,,,,,,,,,,,,,,,,,,,,,,,,,,,,,,,,,,,,,,,03_SY,3,32,F,2022-11-24_14h20.32.429,dynamic target,2022.1.3,120.068774306666,
1,4,3,2,L,0,184,184,184,,,,,,,None,1115.1782165611621,None,1114.187441189506,None,1114.6786601053336,None,1,[0.009144450437815976],[0.5178136062550038],1115.1782165611621,None,[0 2 0 3 1 2 1 0],space,0,2.7378095815911365,0.002114868639182532,None,1115.1948733606023,None,1,1117.934188692605,None,None,1118.433756469554,None,,,,,,,,,,,,,,,,,,,,,,,,,,,,,,,,,,,,,,,,,,,,,,03_SY,3,32,F,2022-11-24_14h20.32.429,dynamic target,2022.1.3,120.068774306666,
1,3,4,2,L,0,185,185,185,,,,,,,None,1119.4661902602438,None,1118.4837242059657,None,1118.9666264280477,None,1,[0.0086316325559892],[0.5170576889649965],1119.4661902602438,None,[1 2 0 2 1 2 3 3],space,0,2.8186831102484575,0.0026520606043050066,None,1119.4828281376977,None,1,1122.3054216940873,None,None,1122.8049894710364,None,,,,,,,,,,,,,,,,,,,,,,,,,,,,,,,,,,,,,,,,,,,,,,03_SY,3,32,F,2022-11-24_14h20.32.429,dynamic target,2022.1.3,120.068774306666,
