tar_letter,tar_pos,tar_ori,tar_pos_type,block,trials.thisRepN,trials.thisTrialN,trials.thisN,trials.thisIndex,instructions_key.keys,instructions_key.rt,instructions_key.started,instructions_key.stopped,instruction_text.started,instruction_text.stopped,fix_key.keys,fix_key.started,fix_key.stopped,fixcross.started,fixcross.stopped,roi.started,roi.stopped,roi.numLooks,roi.timesOn,roi.timesOff,RedFixCross.started,RedFixCross.stopped,distori,search_resp.keys,search_resp.corr,search_resp.rt,search_resp.started,search_resp.stopped,fixcross_shape.started,fixcross_shape.stopped,correct,feedback_text.started,feedback_text.stopped,break_key.keys,break_key.started,break_key.stopped,break_key.rt,fix_key.rt,text_q1.started,text_q1.stopped,key_resp1.keys,key_resp1.rt,key_resp1.started,key_resp1.stopped,text_q2.started,text_q2.stopped,key_resp_2.keys,key_resp_2.rt,key_resp_2.started,key_resp_2.stopped,image.started,image.stopped,text_q1_2.started,text_q1_2.stopped,slider.response,slider.rt,slider.started,slider.stopped,mouse.x,mouse.y,mouse.leftButton,mouse.midButton,mouse.rightButton,mouse.time,mouse.started,mouse.stopped,key_resp_3.keys,key_resp_3.rt,key_resp_3.started,key_resp_3.stopped,text_q4.started,text_q4.stopped,key_resp1_3.keys,key_resp1_3.rt,key_resp1_3.started,key_resp1_3.stopped,finish_text.started,finish_text.stopped,key_resp.keys,key_resp.rt,key_resp.started,key_resp.stopped,participant,group,age,gender,date,expName,psychopyVersion,frameRate,
,,,,,,,,,space,1.7898740978279193,28.981670198269057,None,,,,,,,,,,,,,,,,,,,,,,,,,,,,,,,,,,,,,,,,,,,,,,,,,,,,,,,,,,,,,,,,,,,,,,,,,,,04_UA,4,30,M,2022-11-24_17h28.31.222,dynamic target,2022.1.3,120.09864303236346,
0,4,4,0,T,0,0,0,0,,,,,28.981670198269057,None,None,125.28293410244976,None,124.3350515083689,125.34122141591013,124.78338069753511,None,2,"[0.009804886856727535, 0.14177862546205233]","[0.025457042363541404, 0.6507264025410677]",125.28293410244976,None,[1 0 1 0 0 0 2 0],space,0,3.772190856737325,0.006512559023462927,None,125.44115480348694,None,1,129.22123310275026,None,None,129.72082185041427,None,,,,,,,,,,,,,,,,,,,,,,,,,,,,,,,,,,,,,,,,,,,,,,,04_UA,4,30,M,2022-11-24_17h28.31.222,dynamic target,2022.1.3,120.09864303236346,
0,3,2,2,T,0,1,1,1,,,,,,,None,130.74494850445978,None,129.7541270356959,None,130.24537489452507,None,1,[0.008431907639305791],[0.5171003422987042],130.74494850445978,None,[3 0 3 0 2 3 3 3],space,0,2.2071642069573727,0.001606202877155738,None,130.76160128952927,None,1,132.9680718990827,None,None,133.4676272924279,None,,,,,,,,,,,,,,,,,,,,,,,,,,,,,,,,,,,,,,,,,,,,,,,04_UA,4,30,M,2022-11-24_17h28.31.222,dynamic target,2022.1.3,120.09864303236346,
0,2,1,2,T,0,2,2,2,,,,,,,None,134.49175875719243,None,133.5093069774349,None,133.99218354368475,None,1,[0.00864518285061422],[0.5173565932667543],134.49175875719243,None,[2 2 1 1 1 1 2 0],space,0,1.2289689514168458,0.002572515977135481,None,134.5084131458351,None,1,135.74069935667865,None,None,136.2402714271832,None,,,,,,,,,,,,,,,,,,,,,,,,,,,,,,,,,,,,,,,,,,,,,,,04_UA,4,30,M,2022-11-24_17h28.31.222,dynamic target,2022.1.3,120.09864303236346,
0,1,4,2,T,0,3,3,3,,,,,,,None,137.27273544220293,None,136.281919682159,None,136.76482254700636,None,1,[0.008640051416932693],[0.5165012474194555],137.27273544220293,None,[2 2 2 0 2 3 3 2],space,0,1.4322253592143852,0.0026196610239139773,None,137.28105920487803,None,1,138.71316504582853,None,None,139.21273871990616,None,,,,,,,,,,,,,,,,,,,,,,,,,,,,,,,,,,,,,,,,,,,,,,,04_UA,4,30,M,2022-11-24_17h28.31.222,dynamic target,2022.1.3,120.09864303236346,
0,8,4,2,T,0,4,4,4,,,,,,,None,140.2368701846707,None,139.25438633345277,None,139.73729272616072,None,1,[0.008671802162780295],[0.5171195851748962],140.2368701846707,None,[3 3 3 2 1 3 0 3],space,0,1.1801520194817385,0.0027803390401004435,None,140.25353194974923,None,1,141.4358447317976,None,None,141.93541968873365,None,,,,,,,,,,,,,,,,,,,,,,,,,,,,,,,,,,,,,,,,,,,,,,,04_UA,4,30,M,2022-11-24_17h28.31.222,dynamic target,2022.1.3,120.09864303236346,
0,7,1,2,T,0,5,5,5,,,,,,,None,142.95954762563758,None,141.96872936401974,None,142.45997401570287,None,1,[0.00915672264306977],[0.517616372095631],142.95954762563758,None,[2 3 3 0 0 3 1 1],space,0,1.0160843705090201,0.0021478898422628845,None,142.9762308785945,None,1,143.9920033020776,None,None,144.49157697615522,None,,,,,,,,,,,,,,,,,,,,,,,,,,,,,,,,,,,,,,,,,,,,,,,04_UA,4,30,M,2022-11-24_17h28.31.222,dynamic target,2022.1.3,120.09864303236346,
0,6,1,2,T,0,6,6,6,,,,,,,None,145.51570266805686,None,144.53321496826368,None,145.01613643455812,None,1,[0.008642617133773456],[0.5170268986545352],145.51570266805686,None,[2 1 3 1 3 1 1 2],space,0,1.3568186209364512,0.0029740506606685813,None,145.53235769812875,None,1,146.88953370341665,None,None,147.38910833963803,None,,,,,,,,,,,,,,,,,,,,,,,,,,,,,,,,,,,,,,,,,,,,,,,04_UA,4,30,M,2022-11-24_17h28.31.222,dynamic target,2022.1.3,120.09864303236346,
0,7,4,1,T,0,7,7,7,,,,,,,None,148.41325006726993,None,147.430761405333,None,147.91366555303875,None,1,[0.008841139473361181],[0.5170211257916435],148.41325006726993,None,[1 1 2 0 2 3 3 1],space,0,2.362597256661502,0.0028284462307510694,None,148.4298880994678,None,1,150.79454765931257,None,None,151.29411652267117,None,,,,,,,,,,,,,,,,,,,,,,,,,,,,,,,,,,,,,,,,,,,,,,,04_UA,4,30,M,2022-11-24_17h28.31.222,dynamic target,2022.1.3,120.09864303236346,
0,8,1,1,T,0,8,8,8,,,,,,,None,152.31824349743124,None,151.33574970406062,None,151.81867181178416,None,1,[0.008662822153837624],[0.5176769871557099],152.31824349743124,None,[1 3 0 1 3 3 2 2],space,0,1.144920878863445,0.0022960599890211597,None,152.3348972446447,None,1,153.48391953014027,None,None,153.98349769422236,None,,,,,,,,,,,,,,,,,,,,,,,,,,,,,,,,,,,,,,,,,,,,,,,04_UA,4,30,M,2022-11-24_17h28.31.222,dynamic target,2022.1.3,120.09864303236346,
0,7,1,2,T,0,9,9,9,,,,,,,None,155.00763243027586,None,154.02518443495057,None,154.49971889365008,None,1,[0.009339850681726602],[0.5165163210058381],155.00763243027586,None,[1 1 2 3 3 1 3 0],space,0,0.9608367900601706,0.002314982150664946,None,155.01595074080262,None,0,155.9901332152249,None,None,156.48969085357237,None,,,,,,,,,,,,,,,,,,,,,,,,,,,,,,,,,,,,,,,,,,,,,,,04_UA,4,30,M,2022-11-24_17h28.31.222,dynamic target,2022.1.3,120.09864303236346,
0,6,3,2,T,0,10,10,10,,,,,,,None,157.51382360119533,None,156.53132916639538,None,157.01425480197963,None,1,[0.008667632872857212],[0.516894764237918],157.51382360119533,None,[3 2 3 1 2 2 1 3],space,0,1.4379610191825805,0.0027351182811798935,None,157.530472216975,None,1,158.97091246832542,None,None,159.4704893495491,None,,,,,,,,,,,,,,,,,,,,,,,,,,,,,,,,,,,,,,,,,,,,,,,04_UA,4,30,M,2022-11-24_17h28.31.222,dynamic target,2022.1.3,120.09864303236346,
0,5,2,2,T,0,11,11,11,,,,,,,None,160.494643969908,None,159.50379421411617,None,159.99504014865772,None,1,[0.008655766432525525],[0.5089830556853485],160.494643969908,None,[2 3 3 2 1 0 0 3],space,0,3.0575081894053255,0.0026276788889845193,None,160.50294047184173,None,1,163.55867233134188,None,None,164.05824921256556,None,,,,,,,,,,,,,,,,,,,,,,,,,,,,,,,,,,,,,,,,,,,,,,,04_UA,4,30,M,2022-11-24_17h28.31.222,dynamic target,2022.1.3,120.09864303236346,
0,8,1,0,T,0,12,12,12,,,,,,,None,165.08237394232333,None,164.10826266654317,165.1073550442154,164.58281668883342,None,2,"[0.008691045038858647, 0.3583209564222898]","[0.24206255410047106, 0.8585161112584956]",165.08237394232333,None,[1 1 0 0 0 1 3 3],space,0,1.3359173295149276,0.0028396712418725656,None,165.4404062556025,None,1,166.78092883439172,None,None,167.28050186704013,None,,,,,,,,,,,,,,,,,,,,,,,,,,,,,,,,,,,,,,,,,,,,,,,04_UA,4,30,M,2022-11-24_17h28.31.222,dynamic target,2022.1.3,120.09864303236346,
0,7,4,2,T,0,13,13,13,,,,,,,None,168.3046346146631,None,167.31380865589472,None,167.8050558732947,None,1,[0.008602527808307059],[0.5175102155618561],168.3046346146631,None,[0 3 0 1 1 0 1 2],space,0,1.0619895345593022,0.002395481516145992,None,168.3212829097282,None,1,169.387047684168,None,None,169.88661815109958,None,,,,,,,,,,,,,,,,,,,,,,,,,,,,,,,,,,,,,,,,,,,,,,,04_UA,4,30,M,2022-11-24_17h28.31.222,dynamic target,2022.1.3,120.09864303236346,
0,6,3,2,T,0,14,14,14,,,,,,,None,170.91074352228668,None,169.93663417079404,170.93572751061004,170.41115932877005,None,1,[0.32446632288201727],[0.8247698792541769],170.91074352228668,None,[2 1 2 3 2 3 3 2],space,0,1.3160115362225042,0.0028124105004962985,None,171.23546417184923,None,1,172.5510139873261,None,None,173.05058862354747,None,,,,,,,,,,,,,,,,,,,,,,,,,,,,,,,,,,,,,,,,,,,,,,,04_UA,4,30,M,2022-11-24_17h28.31.222,dynamic target,2022.1.3,120.09864303236346,
0,7,2,1,T,0,15,15,15,,,,,,,None,174.07474061404662,None,173.0922275777998,None,173.57515193052552,None,1,[0.008638447843964059],[0.5171821245226056],174.07474061404662,None,[3 2 0 2 2 3 2 1],space,0,0.8447320100334537,0.002797336914227344,None,174.09137094909397,None,1,174.94064502762478,None,None,175.4402215881338,None,,,,,,,,,,,,,,,,,,,,,,,,,,,,,,,,,,,,,,,,,,,,,,,04_UA,4,30,M,2022-11-24_17h28.31.222,dynamic target,2022.1.3,120.09864303236346,
0,6,3,2,T,0,16,16,16,,,,,,,None,176.46434663860634,None,175.47352613198632,None,175.96479323369158,None,1,[0.008613111390332051],[0.517674742153531],176.46434663860634,None,[3 2 0 1 3 1 1 0],space,0,2.55089136606432,0.0024047822396369156,None,176.4810010272489,None,1,179.037177236832,None,None,179.5367297437458,None,,,,,,,,,,,,,,,,,,,,,,,,,,,,,,,,,,,,,,,,,,,,,,,04_UA,4,30,M,2022-11-24_17h28.31.222,dynamic target,2022.1.3,120.09864303236346,
0,5,3,2,T,0,17,17,17,,,,,,,None,180.5608602463666,None,179.5700429468926,None,180.06128471214424,None,1,[0.008689120751228074],[0.517009900780522],180.5608602463666,None,[3 2 2 2 3 0 0 1],space,0,2.245575232868873,0.0029881621032927796,None,180.5775114278631,None,1,182.8255966815019,None,None,183.32517709058618,None,,,,,,,,,,,,,,,,,,,,,,,,,,,,,,,,,,,,,,,,,,,,,,,04_UA,4,30,M,2022-11-24_17h28.31.222,dynamic target,2022.1.3,120.09864303236346,
0,4,3,2,T,0,18,18,18,,,,,,,None,184.3492995753419,None,183.36687601846938,None,183.84972756898014,None,1,[0.009140366198380434],[0.5176237485316051],184.3492995753419,None,[0 1 0 1 2 0 2 2],space,0,2.79279003500244,0.002318830725926091,None,184.36595524684287,None,1,187.1635843320654,None,None,187.6631445361296,None,,,,,,,,,,,,,,,,,,,,,,,,,,,,,,,,,,,,,,,,,,,,,,,04_UA,4,30,M,2022-11-24_17h28.31.222,dynamic target,2022.1.3,120.09864303236346,
0,3,2,2,T,0,19,19,19,,,,,,,None,188.68727664232335,None,187.7047767553753,188.70392429595927,188.1876991838135,None,1,[0.08345378839317164],[0.5837967926615875],188.68727664232335,None,[2 3 2 0 0 3 1 1],space,0,1.4918821240315765,0.0026353760393931225,None,188.77054537839035,None,1,190.2609196106397,None,None,190.76052375260463,None,,,,,,,,,,,,,,,,,,,,,,,,,,,,,,,,,,,,,,,,,,,,,,,04_UA,4,30,M,2022-11-24_17h28.31.222,dynamic target,2022.1.3,120.09864303236346,
0,2,3,2,T,0,20,20,20,,,,,,,None,191.78463283148983,None,190.8105218122813,None,191.27674783846385,None,1,[0.008648710711327112],[0.516461799523313],191.78463283148983,None,[1 3 0 1 0 1 0 2],space,0,2.181477853652382,0.0028111276421896036,None,191.79296140488395,None,1,193.9744361596736,None,None,194.47401015446576,None,,,,,,,,,,,,,,,,,,,,,,,,,,,,,,,,,,,,,,,,,,,,,,,04_UA,4,30,M,2022-11-24_17h28.31.222,dynamic target,2022.1.3,120.09864303236346,
0,1,3,2,T,0,21,21,21,,,,,,,None,195.49813680851128,None,194.51564942943276,None,194.99857891359216,None,1,[0.008636844270995425],[0.5171102844514053],195.49813680851128,None,[1 0 0 2 1 1 3 1],space,0,0.956685460233075,0.0028759119920778176,None,195.5147921592977,None,1,196.47231351007065,None,None,196.9718868634336,None,,,,,,,,,,,,,,,,,,,,,,,,,,,,,,,,,,,,,,,,,,,,,,,04_UA,4,30,M,2022-11-24_17h28.31.222,dynamic target,2022.1.3,120.09864303236346,
0,8,4,2,T,0,22,22,22,,,,,,,None,197.99601127247695,None,197.01358258417076,None,197.49644183183204,None,1,[0.007757765542805828],[0.5164425566470072],197.99601127247695,None,[1 3 1 0 3 1 2 0],space,0,1.1132095810180545,0.002347053610947114,None,198.01266950969477,None,1,199.128382376476,None,None,199.62795252269302,None,,,,,,,,,,,,,,,,,,,,,,,,,,,,,,,,,,,,,,,,,,,,,,,04_UA,4,30,M,2022-11-24_17h28.31.222,dynamic target,2022.1.3,120.09864303236346,
0,7,3,2,T,0,23,23,23,,,,,,,None,200.6521157382033,None,199.66958923194306,200.6687364518125,200.1525071703768,None,2,"[0.00864582427982441, 0.7165758456361573]","[0.36656203887253014, 1.225036777947139]",200.6521157382033,None,[1 2 3 0 2 3 0 1],space,0,0.9660766252512758,0.002762058307894222,None,201.37647212011916,None,1,202.34231120413267,None,None,202.8418848782103,None,,,,,,,,,,,,,,,,,,,,,,,,,,,,,,,,,,,,,,,,,,,,,,,04_UA,4,30,M,2022-11-24_17h28.31.222,dynamic target,2022.1.3,120.09864303236346,
0,6,2,2,T,0,24,24,24,,,,,,,None,203.874338309648,None,202.88352287031876,None,203.37476655985802,None,1,[0.008662180724513746],[0.5087312947215423],203.874338309648,None,[2 3 1 0 1 0 0 0],space,0,1.6437068137320239,0.0026587882055082446,None,203.88267393876345,None,1,205.53127272062522,None,None,206.0308431875568,None,,,,,,,,,,,,,,,,,,,,,,,,,,,,,,,,,,,,,,,,,,,,,,,04_UA,4,30,M,2022-11-24_17h28.31.222,dynamic target,2022.1.3,120.09864303236346,
0,5,4,2,T,0,25,25,25,,,,,,,None,207.05496246516645,None,206.08085022724242,None,206.5554132295416,None,1,[0.008633637124830784],[0.5176179756685997],207.05496246516645,None,[2 1 3 2 1 3 3 2],space,0,2.3259068645975276,0.0023518643300803888,None,207.07161428809218,None,1,209.4029673156541,None,None,209.9025390654441,None,,,,,,,,,,,,,,,,,,,,,,,,,,,,,,,,,,,,,,,,,,,,,,,04_UA,4,30,M,2022-11-24_17h28.31.222,dynamic target,2022.1.3,120.09864303236346,
0,5,2,0,T,0,26,26,26,,,,,,,None,210.9350052613231,None,209.95254321869822,None,210.43545281855222,None,1,[0.008664105012258005],[0.5179576124337473],210.9350052613231,None,[2 0 2 0 2 0 3 1],space,0,3.6621225669769046,0.002017038284066075,None,210.95164585923771,None,1,214.6151909037642,None,None,215.11476553998557,None,,,,,,,,,,,,,,,,,,,,,,,,,,,,,,,,,,,,,,,,,,,,,,,04_UA,4,30,M,2022-11-24_17h28.31.222,dynamic target,2022.1.3,120.09864303236346,
0,6,1,1,T,0,27,27,27,,,,,,,None,216.13889187331654,None,215.14807040455264,None,215.63931826338182,None,1,[0.009203226260638075],[0.5173408782512752],216.13889187331654,None,[2 0 2 1 0 0 2 1],space,0,1.3221766330447053,0.002572515977249168,None,216.1555456205299,None,1,217.479424714973,None,None,217.97899197475851,None,,,,,,,,,,,,,,,,,,,,,,,,,,,,,,,,,,,,,,,,,,,,,,,04_UA,4,30,M,2022-11-24_17h28.31.222,dynamic target,2022.1.3,120.09864303236346,
0,5,2,2,T,0,28,28,28,,,,,,,None,219.0031244016668,None,218.02063028758164,None,218.50354854672992,None,1,[0.008645503565162471],[0.5168739177886437],219.0031244016668,None,[2 0 1 2 0 3 1 3],space,0,3.3704348801405786,0.0031186929468276503,None,219.01977397959035,None,1,222.3919000961182,None,None,222.89147152519365,None,,,,,,,,,,,,,,,,,,,,,,,,,,,,,,,,,,,,,,,,,,,,,,,04_UA,4,30,M,2022-11-24_17h28.31.222,dynamic target,2022.1.3,120.09864303236346,
0,4,1,2,T,0,29,29,29,,,,,,,None,223.91560491424582,None,222.9414952420385,None,223.4160277764504,None,1,[0.008614714963300685],[0.5177619765255486],223.91560491424582,None,[0 3 1 0 3 1 2 2],space,0,3.5772072821358734,0.0023053607126257702,None,223.93225545431312,None,1,227.5125410634961,None,None,228.01212916973088,None,,,,,,,,,,,,,,,,,,,,,,,,,,,,,,,,,,,,,,,,,,,,,,,04_UA,4,30,M,2022-11-24_17h28.31.222,dynamic target,2022.1.3,120.09864303236346,
0,3,1,2,T,0,30,30,30,,,,,,,None,229.0362429951922,None,228.04542569571822,None,228.53666938525748,None,1,[0.008561476339195906],[0.5168152270163091],229.0362429951922,None,[1 3 3 0 1 3 3 0],space,0,1.2724921681073056,0.003116447944648826,None,229.05289417668882,None,1,230.32680882234558,None,None,230.82638217570866,None,,,,,,,,,,,,,,,,,,,,,,,,,,,,,,,,,,,,,,,,,,,,,,,04_UA,4,30,M,2022-11-24_17h28.31.222,dynamic target,2022.1.3,120.09864303236346,
0,2,2,2,T,0,31,31,31,,,,,,,None,231.85051684761925,None,230.85969698242843,None,231.3509384269655,None,1,[0.007562450349382743],[0.5165009267047935],231.85051684761925,None,[1 1 3 2 1 3 2 2],space,0,3.1452945113765054,0.0017979902098659295,None,231.86716738768655,None,1,235.01448571649405,None,None,235.51405842842792,None,,,,,,,,,,,,,,,,,,,,,,,,,,,,,,,,,,,,,,,,,,,,,,,04_UA,4,30,M,2022-11-24_17h28.31.222,dynamic target,2022.1.3,120.09864303236346,
0,1,1,2,T,0,32,32,32,,,,,,,None,236.53819502462613,None,235.54736970728698,None,236.03861275539714,None,1,[0.009411690752813229],[0.5175721134803553],236.53819502462613,None,[0 2 0 0 0 0 0 1],space,0,2.6815504955101233,0.0023262071616727553,None,236.55484171611818,None,1,239.23589970228068,None,None,239.73546311349094,None,,,,,,,,,,,,,,,,,,,,,,,,,,,,,,,,,,,,,,,,,,,,,,,04_UA,4,30,M,2022-11-24_17h28.31.222,dynamic target,2022.1.3,120.09864303236346,
0,4,4,0,T,0,33,33,33,,,,,,,None,240.75958912610724,None,239.76877631663774,None,240.26001487474332,None,1,[0.008693931470361349],[0.5175079705596772],240.75958912610724,None,[3 1 3 0 3 2 3 1],space,0,1.6919791722705213,0.002355071476131343,None,240.77624447689368,None,1,242.46647073142492,None,None,242.96604536764642,None,,,,,,,,,,,,,,,,,,,,,,,,,,,,,,,,,,,,,,,,,,,,,,,04_UA,4,30,M,2022-11-24_17h28.31.222,dynamic target,2022.1.3,120.09864303236346,
0,3,4,2,T,0,34,34,34,,,,,,,None,243.99018869885128,None,242.99935696722014,None,243.49060161890327,None,1,[0.008651597142716128],[0.5177080964722336],243.99018869885128,None,[2 1 3 2 1 1 2 3],space,0,1.052911386994083,0.0021648877162760982,None,244.0068228824739,None,1,245.06428339368654,None,None,245.56383141059587,None,,,,,,,,,,,,,,,,,,,,,,,,,,,,,,,,,,,,,,,,,,,,,,,04_UA,4,30,M,2022-11-24_17h28.31.222,dynamic target,2022.1.3,120.09864303236346,
0,2,3,2,T,0,35,35,35,,,,,,,None,246.58797474180074,None,245.5971436515988,None,246.08838477542122,None,1,[0.008649031425875364],[0.5176118820912734],246.58797474180074,None,[3 0 0 3 0 1 3 0],space,0,2.2476618020789374,0.0023335835975331065,None,246.60462239543665,None,1,248.85269834835185,None,None,249.3522720224296,None,,,,,,,,,,,,,,,,,,,,,,,,,,,,,,,,,,,,,,,,,,,,,,,04_UA,4,30,M,2022-11-24_17h28.31.222,dynamic target,2022.1.3,120.09864303236346,
0,1,3,2,T,0,36,36,36,,,,,,,None,250.376398676475,None,249.39395202815103,None,249.8768257079695,None,1,[0.009152874067922312],[0.5174864826813064],250.376398676475,None,[1 1 0 2 0 2 3 3],space,0,2.1705774057103326,0.0024346086977402592,None,250.3930556308344,None,1,252.56620944523752,None,None,253.06577574287928,None,,,,,,,,,,,,,,,,,,,,,,,,,,,,,,,,,,,,,,,,,,,,,,,04_UA,4,30,M,2022-11-24_17h28.31.222,dynamic target,2022.1.3,120.09864303236346,
0,8,3,2,T,0,37,37,37,,,,,,,None,254.09823039303262,None,253.11578085827716,None,253.59865485881028,None,1,[0.009205791977478839],[0.5175304205819202],254.09823039303262,None,[2 1 2 0 2 2 0 3],space,0,1.073021475488872,0.002431401551689305,None,254.11488381953131,None,1,255.1889775522228,None,None,255.68854898129825,None,,,,,,,,,,,,,,,,,,,,,,,,,,,,,,,,,,,,,,,,,,,,,,,04_UA,4,30,M,2022-11-24_17h28.31.222,dynamic target,2022.1.3,120.09864303236346,
0,1,3,1,T,0,38,38,38,,,,,,,None,256.71266922105167,None,255.7218525630068,None,256.21310427041124,None,1,[0.008657370005494158],[0.5176102785181911],256.71266922105167,None,[2 3 1 1 0 0 3 2],space,0,2.457972327579455,0.002458983007613824,None,256.7293361175638,None,1,259.18558054314303,None,None,259.68514074720736,None,,,,,,,,,,,,,,,,,,,,,,,,,,,,,,,,,,,,,,,,,,,,,,,04_UA,4,30,M,2022-11-24_17h28.31.222,dynamic target,2022.1.3,120.09864303236346,
0,8,2,2,T,0,39,39,39,,,,,,,None,260.7092699669696,None,259.7184456117744,None,260.20969603632034,None,1,[0.00863876855851231],[0.5173264460941027],260.7092699669696,None,[3 0 2 2 0 2 2 1],space,0,1.3414239992562216,0.0027386461417790997,None,260.725920507037,None,1,262.06644404797,None,None,262.5660183634768,None,,,,,,,,,,,,,,,,,,,,,,,,,,,,,,,,,,,,,,,,,,,,,,,04_UA,4,30,M,2022-11-24_17h28.31.222,dynamic target,2022.1.3,120.09864303236346,
0,7,3,2,T,0,40,40,40,,,,,,,None,263.59847525863233,None,262.60765795915836,None,263.09890293155604,None,1,[0.008648389996665173],[0.5171317723297761],263.59847525863233,None,[3 1 1 3 2 2 1 2],space,0,1.1084828891924872,0.0028435198171337106,None,263.61513349585016,None,1,264.72252766724705,None,None,265.22209653060565,None,,,,,,,,,,,,,,,,,,,,,,,,,,,,,,,,,,,,,,,,,,,,,,,04_UA,4,30,M,2022-11-24_17h28.31.222,dynamic target,2022.1.3,120.09864303236346,
0,6,4,2,T,0,41,41,41,,,,,,,None,266.24621773250294,None,265.2721096638687,None,265.746645084712,None,1,[0.009465570806241885],[0.5174422240659169],266.24621773250294,None,[3 2 3 2 1 2 1 3],space,0,3.1484336659151495,0.0024625108682130303,None,266.26289040187794,None,1,269.4101946192428,None,None,269.9097785561878,None,,,,,,,,,,,,,,,,,,,,,,,,,,,,,,,,,,,,,,,,,,,,,,,04_UA,4,30,M,2022-11-24_17h28.31.222,dynamic target,2022.1.3,120.09864303236346,
0,5,4,2,T,0,42,42,42,,,,,,,None,270.9338894952177,None,269.9430725164583,None,270.434329676011,None,1,[0.008613752819542242],[0.5168697484988343],270.9338894952177,None,[1 1 1 0 1 1 3 3],space,0,1.7570152831312953,0.003031137860148192,None,270.9505554295861,None,1,272.70738031652616,None,None,273.20697419562373,None,,,,,,,,,,,,,,,,,,,,,,,,,,,,,,,,,,,,,,,,,,,,,,,04_UA,4,30,M,2022-11-24_17h28.31.222,dynamic target,2022.1.3,120.09864303236346,
0,6,1,1,T,0,43,43,43,,,,,,,None,274.231095397521,None,273.2485903791393,None,273.73151344900657,None,1,[0.008666029299774891],[0.5169540964394628],274.231095397521,None,[0 3 2 2 3 3 1 0],space,0,0.972087458349165,0.0030535878825048712,None,274.24773439186265,None,1,275.2218924919749,None,None,275.7214780324929,None,,,,,,,,,,,,,,,,,,,,,,,,,,,,,,,,,,,,,,,,,,,,,,,04_UA,4,30,M,2022-11-24_17h28.31.222,dynamic target,2022.1.3,120.09864303236346,
0,7,2,1,T,0,44,44,44,,,,,,,None,276.7456059693968,None,275.7714834686054,None,276.24605480948435,None,1,[0.008671802162666609],[0.5174887276834852],276.7456059693968,None,[0 3 0 0 1 0 3 2],space,0,1.2246713757306225,0.002416327965306664,None,276.76226420661465,None,1,277.98622691135483,None,None,278.4857903225652,None,,,,,,,,,,,,,,,,,,,,,,,,,,,,,,,,,,,,,,,,,,,,,,,04_UA,4,30,M,2022-11-24_17h28.31.222,dynamic target,2022.1.3,120.09864303236346,
0,6,1,2,T,0,45,45,45,,,,,,,None,279.5099240323319,None,278.52743184253427,None,279.01034721525116,None,1,[0.008688479322017884],[0.5173434439681159],279.5099240323319,None,[1 2 2 0 1 0 2 3],space,0,0.9879028575891198,0.002733193993549321,None,279.526587721698,None,1,280.51740854903267,None,None,281.01697099809917,None,,,,,,,,,,,,,,,,,,,,,,,,,,,,,,,,,,,,,,,,,,,,,,,04_UA,4,30,M,2022-11-24_17h28.31.222,dynamic target,2022.1.3,120.09864303236346,
0,5,1,2,T,0,46,46,46,,,,,,,None,282.0410982935739,None,281.0586099523515,None,281.5415317393604,None,1,[0.008646144994486349],[0.5174492797873427],282.0410982935739,None,[3 1 3 2 2 3 1 3],space,0,2.168442729309845,0.0025622531098861145,None,282.0577581343647,None,1,284.2309000823275,None,None,284.73047632212194,None,,,,,,,,,,,,,,,,,,,,,,,,,,,,,,,,,,,,,,,,,,,,,,,04_UA,4,30,M,2022-11-24_17h28.31.222,dynamic target,2022.1.3,120.09864303236346,
0,4,4,2,T,0,47,47,47,,,,,,,None,285.75462061547057,None,284.77210854136763,None,285.2550303283765,None,1,[0.0085986792331596],[0.517266793177896],285.75462061547057,None,[1 3 3 1 0 0 1 2],space,0,2.4069742156264056,0.0028075997815903975,None,285.77125351623476,None,1,288.17754600089745,None,None,288.6771110156807,None,,,,,,,,,,,,,,,,,,,,,,,,,,,,,,,,,,,,,,,,,,,,,,,04_UA,4,30,M,2022-11-24_17h28.31.222,dynamic target,2022.1.3,120.09864303236346,
0,3,3,2,T,0,48,48,48,,,,,,,None,289.70124440473285,None,288.7104261431151,None,289.20166854979595,None,1,[0.008684951461418677],[0.5175394005908629],289.70124440473285,None,[2 1 3 0 0 1 2 1],space,0,2.972312279286257,0.0024185729674854883,None,289.71789494480026,None,1,292.6903603132356,None,None,293.1899368737446,None,,,,,,,,,,,,,,,,,,,,,,,,,,,,,,,,,,,,,,,,,,,,,,,04_UA,4,30,M,2022-11-24_17h28.31.222,dynamic target,2022.1.3,120.09864303236346,
0,2,3,2,T,0,49,49,49,,,,,,,None,294.2140462733445,None,293.22322634401075,None,293.71448895571154,None,1,[0.008647748567454983],[0.5090135235727757],294.2140462733445,None,[1 2 1 1 1 3 3 3],space,0,1.5070570562083958,0.0023653343434943963,None,294.22237003601947,None,1,295.7294403498099,None,None,296.22902107960874,None,,,,,,,,,,,,,,,,,,,,,,,,,,,,,,,,,,,,,,,,,,,,,,,04_UA,4,30,M,2022-11-24_17h28.31.222,dynamic target,2022.1.3,120.09864303236346,
0,1,3,2,T,0,50,50,50,,,,,,,None,297.25314292293524,None,296.2623259441758,None,296.7535879144475,None,1,[0.008640372131594631],[0.51752977915271],297.25314292293524,None,[3 1 2 2 0 1 0 3],space,0,2.92417141373528,0.00249586518691558,None,297.2697960287194,None,1,300.1923075319504,None,None,300.69187831959664,None,,,,,,,,,,,,,,,,,,,,,,,,,,,,,,,,,,,,,,,,,,,,,,,04_UA,4,30,M,2022-11-24_17h28.31.222,dynamic target,2022.1.3,120.09864303236346,
0,8,1,2,T,0,51,51,51,,,,,,,None,301.7160158779386,None,300.7335175945635,None,301.2164352122826,None,1,[0.00866025643699686],[0.5173325396716564],301.7160158779386,None,[3 1 1 1 2 3 0 3],space,0,1.0210230546875891,0.0025147873485593664,None,301.73266128657235,None,1,302.7567851183293,None,None,303.25636071669464,None,,,,,,,,,,,,,,,,,,,,,,,,,,,,,,,,,,,,,,,,,,,,,,,04_UA,4,30,M,2022-11-24_17h28.31.222,dynamic target,2022.1.3,120.09864303236346,
0,7,3,2,T,0,52,52,52,,,,,,,None,304.280488974313,None,303.28967359912656,None,303.78091568509296,None,1,[0.009008231781763243],[0.517519516285347],304.280488974313,None,[2 3 1 3 1 3 0 1],space,0,1.4006580622258298,0.002371427920706992,None,304.2971433629556,None,1,305.69595036877365,None,None,306.1955301364287,None,,,,,,,,,,,,,,,,,,,,,,,,,,,,,,,,,,,,,,,,,,,,,,,04_UA,4,30,M,2022-11-24_17h28.31.222,dynamic target,2022.1.3,120.09864303236346,
0,6,4,2,T,0,53,53,53,,,,,,,None,307.2196658346261,None,306.2288343595666,None,306.7200799733936,None,1,[0.008614714963414372],[0.5091248115402323],307.2196658346261,None,[0 3 1 2 3 2 3 0],space,0,3.396816542705892,0.0024265908325560304,None,307.2279928044471,None,1,310.6251102857342,None,None,311.124668565511,None,,,,,,,,,,,,,,,,,,,,,,,,,,,,,,,,,,,,,,,,,,,,,,,04_UA,4,30,M,2022-11-24_17h28.31.222,dynamic target,2022.1.3,120.09864303236346,
0,5,2,2,T,0,54,54,54,,,,,,,None,312.1487881638351,None,311.15797150579044,None,311.64922193033624,None,1,[0.008714777919522021],[0.5175679441904322],312.1487881638351,None,[2 2 0 0 1 0 1 0],space,0,2.4439423465369146,0.0021289676806190982,None,312.16544351462164,None,1,314.6133554540887,None,None,315.1129300903101,None,,,,,,,,,,,,,,,,,,,,,,,,,,,,,,,,,,,,,,,,,,,,,,,04_UA,4,30,M,2022-11-24_17h28.31.222,dynamic target,2022.1.3,120.09864303236346,
0,4,4,2,T,0,55,55,55,,,,,,,None,316.13707213865644,None,315.1462468213175,None,315.6374821722769,None,1,[0.008561797053516784],[0.5174233019042731],316.13707213865644,None,[3 3 1 0 3 3 0 3],space,0,4.183017604463657,0.002403820095651099,None,316.15371209514194,None,1,320.3418179450724,None,None,320.84138905343343,None,,,,,,,,,,,,,,,,,,,,,,,,,,,,,,,,,,,,,,,,,,,,,,,04_UA,4,30,M,2022-11-24_17h28.31.222,dynamic target,2022.1.3,120.09864303236346,
0,3,3,2,T,0,56,56,56,,,,,,,None,321.8655118589037,None,320.8830629655773,None,321.36593921111273,None,1,[0.009382826438695702],[0.5176965507466775],321.8655118589037,None,[3 2 0 2 2 0 0 3],space,0,3.28615653450197,0.0021927898865214956,None,321.8821694546922,None,1,325.17102940086977,None,None,325.6706094892395,None,,,,,,,,,,,,,,,,,,,,,,,,,,,,,,,,,,,,,,,,,,,,,,,04_UA,4,30,M,2022-11-24_17h28.31.222,dynamic target,2022.1.3,120.09864303236346,
0,2,2,2,T,0,57,57,57,,,,,,,None,326.69473229470975,None,325.7289034735637,None,326.19515868477504,None,1,[0.024824593165476472],[0.5331251681745925],326.69473229470975,None,[3 1 3 0 1 2 2 2],space,0,2.3773603912873114,0.0032501859343483375,None,326.72804139270954,None,1,329.1093437954713,None,None,329.60891682811985,None,,,,,,,,,,,,,,,,,,,,,,,,,,,,,,,,,,,,,,,,,,,,,,,04_UA,4,30,M,2022-11-24_17h28.31.222,dynamic target,2022.1.3,120.09864303236346,
0,1,2,2,T,0,58,58,58,,,,,,,None,330.63304348216536,None,329.6505512923676,None,330.1334692308013,None,1,[0.00861150781724973],[0.517384816151889],330.63304348216536,None,[0 0 1 2 0 2 2 2],space,0,2.022678904185341,0.002532105937234519,None,330.64971102010657,None,1,332.6729756574408,None,None,333.1725483693747,None,,,,,,,,,,,,,,,,,,,,,,,,,,,,,,,,,,,,,,,,,,,,,,,04_UA,4,30,M,2022-11-24_17h28.31.222,dynamic target,2022.1.3,120.09864303236346,
0,8,2,2,T,0,59,59,59,,,,,,,None,334.1966814377123,None,333.20586253466524,None,333.6970998099124,None,1,[0.008752622242809593],[0.5178136115769121],334.1966814377123,None,[1 2 2 0 3 3 1 3],space,0,1.1950373463716915,0.0022758549691843655,None,334.21332941206276,None,1,335.4123074870505,None,space,335.9285454277805,None,5.469060714279067,,,,,,,,,,,,,,,,,,,,,,,,,,,,,,,,,,,,,,,,,,,,,,04_UA,4,30,M,2022-11-24_17h28.31.222,dynamic target,2022.1.3,120.09864303236346,
0,1,4,1,T,0,60,60,60,,,,,,,None,342.4313367673316,None,341.44884521896313,342.4479802516777,341.93175546024634,None,2,"[0.008684951461418677, 0.349942608121637]","[0.2505060074654466, 0.8502217901839231]",342.4313367673316,None,[2 2 2 2 1 3 2 2],space,0,1.939145257855671,0.0027434568610260612,None,342.7810378773569,None,1,344.72104532435003,None,None,345.2206254127195,None,,,,,,,,,,,,,,,,,,,,,,,,,,,,,,,,,,,,,,,,,,,,,,,04_UA,4,30,M,2022-11-24_17h28.31.222,dynamic target,2022.1.3,120.09864303236346,
0,8,3,2,T,0,61,61,61,,,,,,,None,346.2447469994743,None,345.27062315168166,None,345.74517140110913,None,1,[0.008741717946350036],[0.5088473934081321],346.2447469994743,None,[1 2 2 0 2 0 0 2],space,0,1.2034282025419998,0.0028893820051507646,None,346.25307300715156,None,1,347.460379078247,None,None,347.95995211089553,None,,,,,,,,,,,,,,,,,,,,,,,,,,,,,,,,,,,,,,,,,,,,,,,04_UA,4,30,M,2022-11-24_17h28.31.222,dynamic target,2022.1.3,120.09864303236346,
0,7,2,2,T,0,62,62,62,,,,,,,None,348.9840854999476,None,348.00996813059,349.0090649982666,348.48450515500633,None,2,"[0.008649993569633807, 0.7336397868273252]","[0.4914861497795755, 1.2412867454747811]",348.9840854999476,None,[1 3 3 3 2 0 0 0],space,0,1.5068954160483372,0.0029920106787812983,None,349.72511615481164,None,1,351.2321765264493,None,None,351.73174635195164,None,,,,,,,,,,,,,,,,,,,,,,,,,,,,,,,,,,,,,,,,,,,,,,,04_UA,4,30,M,2022-11-24_17h28.31.222,dynamic target,2022.1.3,120.09864303236346,
0,1,3,0,T,0,63,63,63,,,,,,,None,352.7558669124197,None,351.78174409091355,None,352.25629490605786,None,1,[0.008688800036679822],[0.5176243899607016],352.7558669124197,None,[1 0 2 3 0 2 3 3],space,0,1.5786597985747903,0.00239933009129345,None,352.7725219424914,None,1,354.3545131119355,None,None,354.85408101315033,None,,,,,,,,,,,,,,,,,,,,,,,,,,,,,,,,,,,,,,,,,,,,,,,04_UA,4,30,M,2022-11-24_17h28.31.222,dynamic target,2022.1.3,120.09864303236346,
0,8,2,2,T,0,64,64,64,,,,,,,None,355.8782105536271,None,354.9041047299953,None,355.3786363022633,None,1,[0.008606055668906265],[0.5177244529170366],355.8782105536271,None,[1 3 1 1 2 0 2 2],space,0,1.400535869962141,0.002319792869684534,None,355.89486814941586,None,1,357.29366938237115,None,None,357.79325043288463,None,,,,,,,,,,,,,,,,,,,,,,,,,,,,,,,,,,,,,,,,,,,,,,,04_UA,4,30,M,2022-11-24_17h28.31.222,dynamic target,2022.1.3,120.09864303236346,
0,7,2,2,T,0,65,65,65,,,,,,,None,358.81737426464156,None,357.84324753041744,None,358.3178057219976,None,1,[0.008703552908627898],[0.5088531662711375],358.81737426464156,None,[0 2 0 3 1 0 3 0],space,0,1.6373297245570484,0.0027036882499942294,None,358.82569802731666,None,1,360.4659697752144,None,None,360.9655498635841,None,,,,,,,,,,,,,,,,,,,,,,,,,,,,,,,,,,,,,,,,,,,,,,,04_UA,4,30,M,2022-11-24_17h28.31.222,dynamic target,2022.1.3,120.09864303236346,
0,8,4,1,T,0,66,66,66,,,,,,,None,361.9896775439163,None,360.9988502381467,None,361.49011252913294,None,1,[0.00869553504344367],[0.5090103164266111],361.9896775439163,None,[3 2 3 0 3 1 1 3],space,0,0.8650024558301084,0.0024900923240238626,None,361.99799649587237,None,1,362.86393426376924,None,None,363.36350665498844,None,,,,,,,,,,,,,,,,,,,,,,,,,,,,,,,,,,,,,,,,,,,,,,,04_UA,4,30,M,2022-11-24_17h28.31.222,dynamic target,2022.1.3,120.09864303236346,
0,1,4,1,T,0,67,67,67,,,,,,,None,364.38762689474186,None,363.3968121609847,None,363.8880619441014,None,1,[0.008603169237630937],[0.5175467770266096],364.38762689474186,None,[0 3 1 0 3 0 3 0],space,0,1.1148798626729786,0.0025481416676029767,None,364.40429026339336,None,1,365.5199963951678,None,None,366.0195803321128,None,,,,,,,,,,,,,,,,,,,,,,,,,,,,,,,,,,,,,,,,,,,,,,,04_UA,4,30,M,2022-11-24_17h28.31.222,dynamic target,2022.1.3,120.09864303236346,
0,8,2,2,T,0,68,68,68,,,,,,,None,367.04369896829314,None,366.06125424425693,None,366.54412664121685,None,1,[0.008879304511083319],[0.517525609862787],367.04369896829314,None,[2 2 3 1 1 2 0 1],space,0,1.2268608943284107,0.002392915798964168,None,367.0603584883694,None,1,368.2926363606333,None,None,368.7922081104234,None,,,,,,,,,,,,,,,,,,,,,,,,,,,,,,,,,,,,,,,,,,,,,,,04_UA,4,30,M,2022-11-24_17h28.31.222,dynamic target,2022.1.3,120.09864303236346,
0,7,1,2,T,0,69,69,69,,,,,,,None,369.81634470662163,None,368.8255200307116,None,369.31676724811166,None,1,[0.008072707283645286],[0.5169380607094354],369.81634470662163,None,[3 0 0 3 1 1 1 2],space,0,2.773713930389249,0.002314020006906503,None,369.83299364311586,None,1,372.6056393814441,None,None,373.1052015097962,None,,,,,,,,,,,,,,,,,,,,,,,,,,,,,,,,,,,,,,,,,,,,,,,04_UA,4,30,M,2022-11-24_17h28.31.222,dynamic target,2022.1.3,120.09864303236346,
0,6,4,2,T,0,70,70,70,,,,,,,None,374.1293304088439,None,373.13850926079465,374.1376584049516,373.6297551953361,None,1,[0.9090972942269673],[1.4164049368239375],374.1293304088439,None,[0 2 2 1 0 0 3 0],space,0,2.1851317551295324,0.002665843926706657,None,375.04522621123476,None,1,377.2350183785503,None,None,377.73460840907273,None,,,,,,,,,,,,,,,,,,,,,,,,,,,,,,,,,,,,,,,,,,,,,,,04_UA,4,30,M,2022-11-24_17h28.31.222,dynamic target,2022.1.3,120.09864303236346,
0,7,3,1,T,0,71,71,71,,,,,,,None,378.7587254416802,None,377.7679039729163,None,378.25914573816806,None,1,[0.008602527808307059],[0.5175435698804449],378.7587254416802,None,[0 2 2 1 3 2 0 0],space,0,2.0861954692547897,0.0023903500823507784,None,378.77538432032713,None,1,380.8652575322229,None,None,381.36483216844454,None,,,,,,,,,,,,,,,,,,,,,,,,,,,,,,,,,,,,,,,,,,,,,,,04_UA,4,30,M,2022-11-24_17h28.31.222,dynamic target,2022.1.3,120.09864303236346,
0,6,2,2,T,0,72,72,72,,,,,,,None,382.38897646179305,None,381.4064691984091,None,381.8894044554314,None,1,[0.008714457204860082],[0.5175268927212073],382.38897646179305,None,[0 3 1 2 2 3 1 1],space,0,1.1126236354375578,0.0024217801135364425,None,382.4056295675774,None,1,383.52133249220594,None,None,384.0209141841485,None,,,,,,,,,,,,,,,,,,,,,,,,,,,,,,,,,,,,,,,,,,,,,,,04_UA,4,30,M,2022-11-24_17h28.31.222,dynamic target,2022.1.3,120.09864303236346,
0,5,1,2,T,0,73,73,73,,,,,,,None,385.0450334617582,None,384.0625428755335,385.0617032447018,384.5454595311088,None,3,"[0.016874078145974636, 0.03426707252037886, 1.067189709423019]","[0.025212337121274686, 0.05015206682924145, 1.5746134507064653]",385.0450334617582,None,[1 1 3 1 1 1 1 2],space,0,2.6302425732501433,0.0025513488133128703,None,386.1191211008721,None,1,388.7502095068147,None,None,389.24979023661353,None,,,,,,,,,,,,,,,,,,,,,,,,,,,,,,,,,,,,,,,,,,,,,,,04_UA,4,30,M,2022-11-24_17h28.31.222,dynamic target,2022.1.3,120.09864303236346,
0,4,1,2,T,0,74,74,74,,,,,,,None,390.27391207994003,None,389.29142021085715,None,389.77433814929066,None,1,[0.008725040786885074],[0.5176529335606119],390.27391207994003,None,[1 2 3 3 3 3 3 0],space,0,1.0508058956222612,0.002308567858335664,None,390.2905635821513,None,1,391.3396707608025,None,None,391.8392354548712,None,,,,,,,,,,,,,,,,,,,,,,,,,,,,,,,,,,,,,,,,,,,,,,,04_UA,4,30,M,2022-11-24_17h28.31.222,dynamic target,2022.1.3,120.09864303236346,
0,7,2,0,T,0,75,75,75,,,,,,,None,392.86339001108706,None,391.88087697484036,None,392.3637984411347,None,1,[0.008706118625241288],[0.5171615987881069],392.86339001108706,None,[2 2 3 1 2 1 3 0],space,0,1.0863407529702727,0.002914397744461894,None,392.8800241947098,None,1,393.9707796924796,None,None,394.4703450279776,None,,,,,,,,,,,,,,,,,,,,,,,,,,,,,,,,,,,,,,,,,,,,,,,04_UA,4,30,M,2022-11-24_17h28.31.222,dynamic target,2022.1.3,120.09864303236346,
0,6,2,2,T,0,76,76,76,,,,,,,None,395.49446494701635,None,394.50364155396494,None,394.994906410668,None,1,[0.009487058684726435],[0.5176577442796315],395.49446494701635,None,[2 1 1 3 3 3 0 1],space,0,1.8140989546848232,0.0021373062602378923,None,395.51112831566786,None,1,397.32623923321,None,None,397.8258103415708,None,,,,,,,,,,,,,,,,,,,,,,,,,,,,,,,,,,,,,,,,,,,,,,,04_UA,4,30,M,2022-11-24_17h28.31.222,dynamic target,2022.1.3,120.09864303236346,
0,5,4,2,T,0,77,77,77,,,,,,,None,398.8499491827712,None,397.8674467301063,None,398.35038615641827,None,1,[0.00867597145270338],[0.5171571087835218],398.8499491827712,None,[3 3 0 2 3 2 0 2],space,0,1.4510795293222145,0.002820428365794214,None,398.86659362926105,None,1,400.3153605938609,None,None,400.81494100294526,None,,,,,,,,,,,,,,,,,,,,,,,,,,,,,,,,,,,,,,,,,,,,,,,04_UA,4,30,M,2022-11-24_17h28.31.222,dynamic target,2022.1.3,120.09864303236346,
0,4,4,2,T,0,78,78,78,,,,,,,None,401.83905867698184,None,400.85660785936795,None,401.3394857084762,None,1,[0.008646144994600036],[0.517658385708728],401.83905867698184,None,[2 2 3 3 2 0 3 2],space,0,0.9729966842501199,0.00214147555038835,None,401.85571627277034,None,1,402.82988367360633,None,None,403.3294570269693,None,,,,,,,,,,,,,,,,,,,,,,,,,,,,,,,,,,,,,,,,,,,,,,,04_UA,4,30,M,2022-11-24_17h28.31.222,dynamic target,2022.1.3,120.09864303236346,
0,3,1,2,T,0,79,79,79,,,,,,,None,404.35358688816075,None,403.36276413653843,None,403.85401680608663,None,1,[0.008616318536269318],[0.5178963559444583],404.35358688816075,None,[3 1 1 3 3 3 1 3],space,0,1.0666472727452856,0.0020462233130729146,None,404.3702399939449,None,1,405.43600797553074,None,None,405.935572348885,None,,,,,,,,,,,,,,,,,,,,,,,,,,,,,,,,,,,,,,,,,,,,,,,04_UA,4,30,M,2022-11-24_17h28.31.222,dynamic target,2022.1.3,120.09864303236346,
0,2,4,2,T,0,80,80,80,,,,,,,None,406.9597012479327,None,405.9688794584541,None,406.46012475156647,None,1,[0.008671802162780295],[0.5174489590726807],406.9597012479327,None,[1 3 3 2 3 3 1 0],space,0,1.308763386184637,0.002484319461245832,None,406.9763610887236,None,1,408.283573607369,None,None,408.7831495264488,None,,,,,,,,,,,,,,,,,,,,,,,,,,,,,,,,,,,,,,,,,,,,,,,04_UA,4,30,M,2022-11-24_17h28.31.222,dynamic target,2022.1.3,120.09864303236346,
0,1,2,2,T,0,81,81,81,,,,,,,None,409.8072752183506,None,408.8247868771281,409.8239398698605,409.3077060984202,None,1,[0.06649279658950036],[0.5752709156433866],409.8072752183506,None,[1 2 2 0 2 0 0 1],space,0,1.0426581411218194,0.002555518103235954,None,409.8822185240266,None,1,410.92300059300135,None,None,411.42256528707003,None,,,,,,,,,,,,,,,,,,,,,,,,,,,,,,,,,,,,,,,,,,,,,,,04_UA,4,30,M,2022-11-24_17h28.31.222,dynamic target,2022.1.3,120.09864303236346,
0,8,2,2,T,0,82,82,82,,,,,,,None,412.44669194111555,None,411.45588041450435,None,411.94712250047075,None,1,[0.008648710711440799],[0.5178838480749164],412.44669194111555,None,[3 1 1 2 3 2 1 3],space,0,1.1324944708380826,0.0018162709425268986,None,412.4633495369043,None,1,413.5957321866291,None,None,414.0952972014122,None,,,,,,,,,,,,,,,,,,,,,,,,,,,,,,,,,,,,,,,,,,,,,,,04_UA,4,30,M,2022-11-24_17h28.31.222,dynamic target,2022.1.3,120.09864303236346,
0,3,2,0,T,0,83,83,83,,,,,,,None,415.11941679973654,None,414.1369265342265,415.1360660569454,414.6198505662377,None,1,[0.10816420715968889],[0.608313179093102],415.11941679973654,None,[0 0 0 0 2 1 0 3],space,0,1.6007182282855865,0.002603946008321145,None,415.2276582991159,None,1,416.8263115543531,None,None,417.32587913485304,None,,,,,,,,,,,,,,,,,,,,,,,,,,,,,,,,,,,,,,,,,,,,,,,04_UA,4,30,M,2022-11-24_17h28.31.222,dynamic target,2022.1.3,120.09864303236346,
0,2,3,2,T,0,84,84,84,,,,,,,None,418.3499971937472,None,417.35917309512377,None,417.8504241610989,None,1,[0.008658332149479975],[0.508982734970914],418.3499971937472,None,[1 3 2 1 2 2 3 2],space,0,1.7014764938226108,0.0022405763625101827,None,418.35832544642665,None,1,420.06520480674214,None,None,420.5647624450896,None,,,,,,,,,,,,,,,,,,,,,,,,,,,,,,,,,,,,,,,,,,,,,,,04_UA,4,30,M,2022-11-24_17h28.31.222,dynamic target,2022.1.3,120.09864303236346,
0,1,3,2,T,0,85,85,85,,,,,,,None,421.58890673843837,None,420.59808206252853,421.5972302445417,421.0893299213577,None,2,"[0.008781486557154494, 0.71764414598033]","[0.4331914598833464, 1.2251201637441227]",421.58890673843837,None,[3 2 2 2 3 2 2 1],space,0,0.6743709783972918,0.0023387150311009464,None,422.31328877752264,None,1,422.98771214068336,None,None,423.48729094619466,None,,,,,,,,,,,,,,,,,,,,,,,,,,,,,,,,,,,,,,,,,,,,,,,04_UA,4,30,M,2022-11-24_17h28.31.222,dynamic target,2022.1.3,120.09864303236346,
0,8,4,2,T,0,86,86,86,,,,,,,None,424.511438767404,None,423.5206150536379,None,424.01185072531223,None,1,[0.008610866388153227],[0.517636256401147],424.511438767404,None,[3 2 3 2 2 3 1 3],space,0,0.7794922453995241,0.0024932994697337563,None,424.528071026739,None,1,425.3107374928521,None,None,425.81030763906915,None,,,,,,,,,,,,,,,,,,,,,,,,,,,,,,,,,,,,,,,,,,,,,,,04_UA,4,30,M,2022-11-24_17h28.31.222,dynamic target,2022.1.3,120.09864303236346,
0,7,1,2,T,0,87,87,87,,,,,,,None,426.8344358966875,None,425.84361635221137,None,426.33486645604273,None,1,[0.008696497187202112],[0.5175865456376414],426.8344358966875,None,[1 1 2 0 1 3 2 2],space,0,1.2731765730711686,0.0024740565938827785,None,426.85109220961783,None,1,428.12501872171504,None,None,428.6245821329253,None,,,,,,,,,,,,,,,,,,,,,,,,,,,,,,,,,,,,,,,,,,,,,,,04_UA,4,30,M,2022-11-24_17h28.31.222,dynamic target,2022.1.3,120.09864303236346,
0,6,3,2,T,0,88,88,88,,,,,,,None,429.6487091076855,None,428.6745891726108,None,429.14913068703174,None,1,[0.024863399632522487],[0.5331296581791776],429.6487091076855,None,[3 0 2 1 1 3 1 3],space,0,0.7140767291630254,0.0031055436479618947,None,429.6820342414154,None,1,430.3980651929404,None,None,430.8976462434539,None,,,,,,,,,,,,,,,,,,,,,,,,,,,,,,,,,,,,,,,,,,,,,,,04_UA,4,30,M,2022-11-24_17h28.31.222,dynamic target,2022.1.3,120.09864303236346,
0,5,2,2,T,0,89,89,89,,,,,,,None,431.92177418035783,None,430.9392996298633,None,431.42219672184785,None,1,[0.00862337425746773],[0.5175467770266096],431.92177418035783,None,[1 3 2 1 1 2 2 3],space,0,1.2249542460108387,0.002539803087756809,None,431.93842888971506,None,1,433.1623797280148,None,None,433.6619550056655,None,,,,,,,,,,,,,,,,,,,,,,,,,,,,,,,,,,,,,,,,,,,,,,,04_UA,4,30,M,2022-11-24_17h28.31.222,dynamic target,2022.1.3,120.09864303236346,
0,4,4,2,T,0,90,90,90,,,,,,,None,434.68607845256486,None,433.7119565932027,None,434.18650772906165,None,1,[0.008750697955065334],[0.5177459407955212],434.68607845256486,None,[0 1 0 2 1 2 1 1],space,0,0.6688514800719076,0.0020888783551527013,None,434.70271840905036,None,1,435.37715556293927,None,None,435.8767340477359,None,,,,,,,,,,,,,,,,,,,,,,,,,,,,,,,,,,,,,,,,,,,,,,,04_UA,4,30,M,2022-11-24_17h28.31.222,dynamic target,2022.1.3,120.09864303236346,
0,3,1,2,T,0,91,91,91,,,,,,,None,436.9008616639252,None,435.9183717191298,436.9175170147115,436.40128741256115,None,1,[0.058102261134081346],[0.5584818268673644],436.9008616639252,None,[0 2 3 3 0 3 1 2],space,0,0.5881231243788534,0.0026087567275681067,None,436.9591537881046,None,1,437.5503132259174,None,None,438.0498843342782,None,,,,,,,,,,,,,,,,,,,,,,,,,,,,,,,,,,,,,,,,,,,,,,,04_UA,4,30,M,2022-11-24_17h28.31.222,dynamic target,2022.1.3,120.09864303236346,
0,2,1,2,T,0,92,92,92,,,,,,,None,439.07402349619326,None,438.091529382108,439.0906631319641,438.57445148983163,None,1,[0.7421602116971826],[1.2497334059858076],439.07402349619326,None,[1 1 3 3 2 3 2 3],space,0,1.1802366881372564,0.0026668060704650998,None,439.82337284644166,None,1,441.0056971742157,None,None,441.50528143187535,None,,,,,,,,,,,,,,,,,,,,,,,,,,,,,,,,,,,,,,,,,,,,,,,04_UA,4,30,M,2022-11-24_17h28.31.222,dynamic target,2022.1.3,120.09864303236346,
0,1,3,2,T,0,93,93,93,,,,,,,None,442.52940584091846,None,441.54691782041084,None,442.0298238924041,None,1,[0.008680461457061028],[0.5168832185122483],442.52940584091846,None,[2 0 3 1 3 3 2 0],space,0,0.6177119329786365,0.0030895079180481844,None,442.54606022956125,None,1,443.16219659997626,None,None,443.66178246120876,None,,,,,,,,,,,,,,,,,,,,,,,,,,,,,,,,,,,,,,,,,,,,,,,04_UA,4,30,M,2022-11-24_17h28.31.222,dynamic target,2022.1.3,120.09864303236346,
0,8,3,2,T,0,94,94,94,,,,,,,None,444.68589724881406,None,443.7034057004456,None,444.18632203530626,None,1,[0.00865865286391454],[0.5176471606976065],444.68589724881406,None,[2 2 2 1 3 0 3 2],space,0,0.7161071733173685,0.0018348723892813723,None,444.70255708960474,None,1,445.41860728400604,None,None,445.91818031665434,None,,,,,,,,,,,,,,,,,,,,,,,,,,,,,,,,,,,,,,,,,,,,,,,04_UA,4,30,M,2022-11-24_17h28.31.222,dynamic target,2022.1.3,120.09864303236346,
0,7,4,2,T,0,95,95,95,,,,,,,None,446.9423072914145,None,445.95148486050687,None,446.4427323986214,None,1,[0.008606697098230143],[0.5175454941681892],446.9423072914145,None,[1 3 3 1 2 3 3 0],space,0,0.6195653426721037,0.0024111965315114503,None,446.9589629629155,None,1,447.5834298951553,None,None,448.08302024639215,None,,,,,,,,,,,,,,,,,,,,,,,,,,,,,,,,,,,,,,,,,,,,,,,04_UA,4,30,M,2022-11-24_17h28.31.222,dynamic target,2022.1.3,120.09864303236346,
0,6,3,2,T,0,96,96,96,,,,,,,None,449.1071331097097,None,448.1246447684874,None,448.6075758562198,None,1,[0.008722795784478876],[0.5172533231643683],449.1071331097097,None,[1 2 3 3 1 2 1 1],space,0,0.7107230165545388,0.002326848590882946,None,449.12378846049626,None,1,449.8398418620433,None,None,450.3394184225524,None,,,,,,,,,,,,,,,,,,,,,,,,,,,,,,,,,,,,,,,,,,,,,,,04_UA,4,30,M,2022-11-24_17h28.31.222,dynamic target,2022.1.3,120.09864303236346,
0,1,1,0,T,0,97,97,97,,,,,,,None,451.36354283159574,None,450.3894155200852,None,450.86397242880696,None,1,[0.008662822153837624],[0.5176952678880298],451.36354283159574,None,[3 1 1 2 0 2 2 3],space,0,2.454157106656794,0.0022437835086748237,None,451.38019529595056,None,1,453.8364371558131,None,None,454.3360108298907,None,,,,,,,,,,,,,,,,,,,,,,,,,,,,,,,,,,,,,,,,,,,,,,,04_UA,4,30,M,2022-11-24_17h28.31.222,dynamic target,2022.1.3,120.09864303236346,
0,8,3,2,T,0,98,98,98,,,,,,,None,455.36013588036315,None,454.37768955275385,None,454.8605641947162,None,1,[0.00865288000113651],[0.5174512040748596],455.36013588036315,None,[3 3 1 1 0 0 1 3],space,0,1.786066574055667,0.002477263739820046,None,455.37679443829563,None,0,457.1752580229164,None,None,457.6748326591378,None,,,,,,,,,,,,,,,,,,,,,,,,,,,,,,,,,,,,,,,,,,,,,,,04_UA,4,30,M,2022-11-24_17h28.31.222,dynamic target,2022.1.3,120.09864303236346,
0,7,2,2,T,0,99,99,99,,,,,,,None,458.69896059604173,None,457.7164655198127,None,458.19938666539235,None,1,[0.008636202841671548],[0.5171118880243739],458.69896059604173,None,[0 3 2 0 1 0 0 1],space,0,1.5994016948384342,0.0028476891068294208,None,458.7156133811112,None,1,460.3225920667395,None,None,460.8221509879454,None,,,,,,,,,,,,,,,,,,,,,,,,,,,,,,,,,,,,,,,,,,,,,,,04_UA,4,30,M,2022-11-24_17h28.31.222,dynamic target,2022.1.3,120.09864303236346,
0,6,3,2,T,0,100,100,100,,,,,,,None,461.84628726342896,None,460.8554398167822,None,461.3467117292065,None,1,[0.008647107138358479],[0.5173488961163457],461.84628726342896,None,[0 3 0 3 3 0 3 0],space,0,0.9469463198699941,0.00250195876469661,None,461.8629368413525,None,1,462.8121212160087,None,None,463.3117013043784,None,,,,,,,,,,,,,,,,,,,,,,,,,,,,,,,,,,,,,,,,,,,,,,,04_UA,4,30,M,2022-11-24_17h28.31.222,dynamic target,2022.1.3,120.09864303236346,
0,7,3,1,T,0,101,101,101,,,,,,,None,464.3358308448554,None,463.35335212507096,None,463.8362508206286,None,1,[0.008668274301953716],[0.517038123665543],464.3358308448554,None,[1 0 0 0 2 2 2 0],space,0,2.105411084720572,0.002652373913406336,None,464.3524829884956,None,1,466.45902405904747,None,None,466.9585897152599,None,,,,,,,,,,,,,,,,,,,,,,,,,,,,,,,,,,,,,,,,,,,,,,,04_UA,4,30,M,2022-11-24_17h28.31.222,dynamic target,2022.1.3,120.09864303236346,
0,6,1,2,T,0,102,102,102,,,,,,,None,467.98271765216384,None,466.99189618339994,467.99105719399734,467.4831440422291,None,4,"[0.009600912369023717, 0.7590243476906835, 0.8250017559125808, 0.8749982761592037]","[0.350400267861005, 0.8168097427965222, 0.866902156709557, 1.375058410147176]",467.98271765216384,None,[2 1 3 2 1 2 2 3],space,0,0.8170142504302476,0.0024833573172600154,None,468.8569728325866,None,1,469.6729451895536,None,None,470.1725179014875,None,,,,,,,,,,,,,,,,,,,,,,,,,,,,,,,,,,,,,,,,,,,,,,,04_UA,4,30,M,2022-11-24_17h28.31.222,dynamic target,2022.1.3,120.09864303236346,
0,5,2,2,T,0,103,103,103,,,,,,,None,471.19664776267894,None,470.21421426365384,471.21329926489,470.69707190774204,None,2,"[0.009144856202738083, 0.808655894718413]","[0.3502158569638141, 1.3163400562598326]",471.19664776267894,None,[2 2 2 1 1 0 2 1],space,0,2.1247344602929843,0.001966365376574686,None,472.0126194782166,None,1,474.1358268038513,None,None,474.6353821971966,None,,,,,,,,,,,,,,,,,,,,,,,,,,,,,,,,,,,,,,,,,,,,,,,04_UA,4,30,M,2022-11-24_17h28.31.222,dynamic target,2022.1.3,120.09864303236346,
0,4,1,2,T,0,104,104,104,,,,,,,None,475.6595123791027,None,474.6686921931972,None,475.1599378070242,None,1,[0.008658973578576479],[0.5174146426102197],475.6595123791027,None,[1 0 0 1 0 1 0 1],space,0,0.7813389200862275,0.0024384572730014042,None,475.67616548488684,None,1,476.45882938528314,None,None,476.9584056250776,None,,,,,,,,,,,,,,,,,,,,,,,,,,,,,,,,,,,,,,,,,,,,,,,04_UA,4,30,M,2022-11-24_17h28.31.222,dynamic target,2022.1.3,120.09864303236346,
0,3,1,2,T,0,105,105,105,,,,,,,None,477.9825422212758,None,477.00003816503784,None,477.48295770704465,None,1,[0.00866025643699686],[0.5173963618778998],477.9825422212758,None,[1 2 2 1 2 2 1 0],space,0,0.6026277630346613,0.002657184632425924,None,477.99919404420154,None,1,478.5986773088324,None,None,479.0982490586225,None,,,,,,,,,,,,,,,,,,,,,,,,,,,,,,,,,,,,,,,,,,,,,,,04_UA,4,30,M,2022-11-24_17h28.31.222,dynamic target,2022.1.3,120.09864303236346,
0,2,1,2,T,0,106,106,106,,,,,,,None,480.1307076214939,None,479.1398876921602,None,479.62280530987925,None,1,[0.008871607360788403],[0.5163992601756036],480.1307076214939,None,[0 2 0 2 0 0 3 2],space,0,1.7585418846438188,0.0029778992359297263,None,480.13902817702285,None,1,481.89586460968883,None,None,482.39543828376645,None,,,,,,,,,,,,,,,,,,,,,,,,,,,,,,,,,,,,,,,,,,,,,,,04_UA,4,30,M,2022-11-24_17h28.31.222,dynamic target,2022.1.3,120.09864303236346,
0,1,3,2,T,0,107,107,107,,,,,,,None,483.41956782424325,None,482.43708974588833,None,482.9200185886185,None,1,[0.008658332149479975],[0.5170515936790707],483.41956782424325,None,[1 0 3 1 0 0 2 2],space,0,0.6214710288456899,0.002907983452132612,None,483.4362190057399,None,1,484.0606891451256,None,None,484.5602608949157,None,,,,,,,,,,,,,,,,,,,,,,,,,,,,,,,,,,,,,,,,,,,,,,,04_UA,4,30,M,2022-11-24_17h28.31.222,dynamic target,2022.1.3,120.09864303236346,
0,7,1,0,T,0,108,108,108,,,,,,,None,485.58439011467806,None,484.60190049059713,485.6010451447497,485.0848229190352,None,1,[0.09159641146015929],[0.5919493578812762],485.58439011467806,None,[3 2 3 0 1 3 0 2],space,0,1.5807749113846512,0.0024169693945168547,None,485.67598139470454,None,1,487.25796679128564,None,None,487.7575439932241,None,,,,,,,,,,,,,,,,,,,,,,,,,,,,,,,,,,,,,,,,,,,,,,,04_UA,4,30,M,2022-11-24_17h28.31.222,dynamic target,2022.1.3,120.09864303236346,
0,6,4,2,T,0,109,109,109,,,,,,,None,488.7816748807022,None,487.79085014064947,None,488.28209575447625,None,1,[0.008636202841898921],[0.5089179506210257],488.7816748807022,None,[3 0 2 2 0 3 2 2],space,0,1.811079426693368,0.00272742113043023,None,488.7899925497999,None,1,490.6051175787844,None,None,491.1046899700036,None,,,,,,,,,,,,,,,,,,,,,,,,,,,,,,,,,,,,,,,,,,,,,,,04_UA,4,30,M,2022-11-24_17h28.31.222,dynamic target,2022.1.3,120.09864303236346,
0,5,2,2,T,0,110,110,110,,,,,,,None,492.128818227622,None,491.1463420735546,492.1454662019727,491.629241731256,None,2,"[0.057979748155730704, 0.7998346395504541]","[0.525321219728994, 1.3077760142039097]",492.128818227622,None,[1 0 2 2 0 3 2 1],space,0,3.9520825642443924,0.002623188884854244,None,492.93647060634623,None,1,496.8914252781477,None,None,497.3909957450794,None,,,,,,,,,,,,,,,,,,,,,,,,,,,,,,,,,,,,,,,,,,,,,,,04_UA,4,30,M,2022-11-24_17h28.31.222,dynamic target,2022.1.3,120.09864303236346,
0,4,3,2,T,0,111,111,111,,,,,,,None,498.4151281719877,None,497.43265458363715,None,497.9155587313429,None,1,[0.008671802162780295],[0.5172289488548358],498.4151281719877,None,[1 0 0 3 3 2 2 3],space,0,0.5531543283061637,0.0028031097772327485,None,498.43177774991125,None,1,498.98963835259167,None,None,499.4892126680986,None,,,,,,,,,,,,,,,,,,,,,,,,,,,,,,,,,,,,,,,,,,,,,,,04_UA,4,30,M,2022-11-24_17h28.31.222,dynamic target,2022.1.3,120.09864303236346,
0,3,2,2,T,0,112,112,112,,,,,,,None,500.5133415671463,None,499.53084713234637,None,500.0137650707801,None,1,[0.008640372131594631],[0.5170897587167929],500.5133415671463,None,[2 1 2 0 2 1 3 3],space,0,0.5825914388985893,0.0028124105003826116,None,500.5299991629348,None,1,501.1128309253546,None,None,501.61240812729284,None,,,,,,,,,,,,,,,,,,,,,,,,,,,,,,,,,,,,,,,,,,,,,,,04_UA,4,30,M,2022-11-24_17h28.31.222,dynamic target,2022.1.3,120.09864303236346,
0,2,2,2,T,0,113,113,113,,,,,,,None,502.644854823724,None,501.6624084319718,None,502.1369544363971,None,1,[0.008676933596234448],[0.5164653273836848],502.644854823724,None,[3 3 1 3 1 3 1 3],space,0,0.6840026793681773,0.002680917513089298,None,502.65318051068664,None,1,503.33594662282724,None,None,503.8355106754666,None,,,,,,,,,,,,,,,,,,,,,,,,,,,,,,,,,,,,,,,,,,,,,,,04_UA,4,30,M,2022-11-24_17h28.31.222,dynamic target,2022.1.3,120.09864303236346,
0,3,2,1,T,0,114,114,114,,,,,,,None,504.8596331602224,None,503.8688181057506,None,504.360062436719,None,1,[0.008643258563097334],[0.517803348709549],504.8596331602224,None,[3 3 3 1 3 2 1 3],space,0,1.8357443039863028,0.002226464920113358,None,504.8762974910177,None,1,506.71638886902235,None,None,507.21596126024156,None,,,,,,,,,,,,,,,,,,,,,,,,,,,,,,,,,,,,,,,,,,,,,,,04_UA,4,30,M,2022-11-24_17h28.31.222,dynamic target,2022.1.3,120.09864303236346,
0,2,3,2,T,0,115,115,115,,,,,,,None,508.24009240429166,None,507.24928953697474,508.24842392825997,507.7405220015029,None,2,"[0.008627864262052753, 0.7501241967302121]","[0.36656300101640227, 1.2583083523384175]",508.24009240429166,None,[3 3 3 1 2 0 0 2],space,0,1.0585091396826556,0.002720365409459191,None,508.9977835413755,None,1,510.05521711256154,None,None,510.5547834102033,None,,,,,,,,,,,,,,,,,,,,,,,,,,,,,,,,,,,,,,,,,,,,,,,04_UA,4,30,M,2022-11-24_17h28.31.222,dynamic target,2022.1.3,120.09864303236346,
0,1,3,2,T,0,116,116,116,,,,,,,None,511.57891776139934,None,510.59642076088255,None,511.0793386993163,None,1,[0.008717343636590158],[0.5172270245670916],511.57891776139934,None,[1 1 1 2 1 1 2 3],space,0,0.9403556347690483,0.0026674474997889774,None,511.5955487378759,None,1,512.5364301321632,None,None,513.0360047683848,None,,,,,,,,,,,,,,,,,,,,,,,,,,,,,,,,,,,,,,,,,,,,,,,04_UA,4,30,M,2022-11-24_17h28.31.222,dynamic target,2022.1.3,120.09864303236346,
0,8,4,2,T,0,117,117,117,,,,,,,None,514.060133988147,None,513.0693186129607,None,513.5605658303606,None,1,[0.008693931470361349],[0.5176574235649696],514.060133988147,None,[1 3 3 0 0 0 0 3],space,0,1.0507484877082334,0.0024256286887975875,None,514.0767909425066,None,1,515.1258926690094,None,None,515.625470512377,None,,,,,,,,,,,,,,,,,,,,,,,,,,,,,,,,,,,,,,,,,,,,,,,04_UA,4,30,M,2022-11-24_17h28.31.222,dynamic target,2022.1.3,120.09864303236346,
0,7,2,2,T,0,118,118,118,,,,,,,None,516.6495913935595,None,515.6587862812404,None,516.1500203493416,None,1,[0.009259992745455747],[0.5174710883802618],516.6495913935595,None,[1 2 3 2 0 3 3 3],space,0,0.9415663323970875,0.002521522354982153,None,516.6662467443458,None,1,517.6071124236179,None,None,518.1066860976955,None,,,,,,,,,,,,,,,,,,,,,,,,,,,,,,,,,,,,,,,,,,,,,,,04_UA,4,30,M,2022-11-24_17h28.31.222,dynamic target,2022.1.3,120.09864303236346,
0,6,2,2,T,0,119,119,119,,,,,,,None,519.1308111481679,None,518.1566937788103,None,518.6312388210916,None,1,[0.008606697098230143],[0.5174900105419056],519.1308111481679,None,[1 2 1 0 2 2 0 2],space,0,2.2041536589747466,0.0025138252049146104,None,519.1474648953814,None,1,521.3539204313485,None,space,521.8618355074042,None,7.0469194760578375,,,,,,,,,,,,,,,,,,,,,,,,,,,,,,,,,,,,,,,,,,,,,,04_UA,4,30,M,2022-11-24_17h28.31.222,dynamic target,2022.1.3,120.09864303236346,
0,5,1,2,T,0,120,120,120,,,,,,,None,529.9465971699502,None,528.9641091494424,None,529.447021635728,None,1,[0.008668915731277593],[0.5169271564129758],529.9465971699502,None,[2 3 1 3 0 2 1 0],space,0,2.1404369679926276,0.002735759710503771,None,529.9632522000221,None,1,532.1030937092793,None,None,532.6026670626422,None,,,,,,,,,,,,,,,,,,,,,,,,,,,,,,,,,,,,,,,,,,,,,,,04_UA,4,30,M,2022-11-24_17h28.31.222,dynamic target,2022.1.3,120.09864303236346,
0,4,2,2,T,0,121,121,121,,,,,,,None,533.6351294099462,None,532.6526843651951,None,533.1355484235754,None,1,[0.00952682729530352],[0.5175188748560231],533.6351294099462,None,[2 0 3 1 0 1 0 2],space,0,1.1874274302610957,0.00246347301208516,None,533.6517767428674,None,1,534.8424258596034,None,None,535.3420001751101,None,,,,,,,,,,,,,,,,,,,,,,,,,,,,,,,,,,,,,,,,,,,,,,,04_UA,4,30,M,2022-11-24_17h28.31.222,dynamic target,2022.1.3,120.09864303236346,
0,3,3,2,T,0,122,122,122,,,,,,,None,536.374456813694,None,535.3836323943559,None,535.8748802531849,None,1,[0.008590019938992555],[0.5089965256988762],536.374456813694,None,[2 1 2 2 0 1 1 2],space,0,0.5841934083425713,0.0025054866250684427,None,536.3827799349398,None,1,536.9656193945101,None,None,537.4652020485967,None,,,,,,,,,,,,,,,,,,,,,,,,,,,,,,,,,,,,,,,,,,,,,,,04_UA,4,30,M,2022-11-24_17h28.31.222,dynamic target,2022.1.3,120.09864303236346,
0,2,3,2,T,0,123,123,123,,,,,,,None,538.4893185039177,None,537.498513968885,None,537.9897698455792,None,1,[0.008669236445939532],[0.5089471356498052],538.4893185039177,None,[3 3 0 0 3 0 2 1],space,0,0.5967853051033671,0.002521201640547588,None,538.4976464358825,None,1,539.0971357940911,None,None,539.5967107510271,None,,,,,,,,,,,,,,,,,,,,,,,,,,,,,,,,,,,,,,,,,,,,,,,04_UA,4,30,M,2022-11-24_17h28.31.222,dynamic target,2022.1.3,120.09864303236346,
0,1,4,2,T,0,124,124,124,,,,,,,None,540.6208441400792,None,539.6383420081289,None,540.121264436567,None,1,[0.008625939974308494],[0.5172305524276908],540.6208441400792,None,[0 0 2 1 3 0 2 0],space,0,0.7291272240736362,0.0027431361461367487,None,540.6375094330184,None,1,541.3701983010466,None,None,541.8697738994117,None,,,,,,,,,,,,,,,,,,,,,,,,,,,,,,,,,,,,,,,,,,,,,,,04_UA,4,30,M,2022-11-24_17h28.31.222,dynamic target,2022.1.3,120.09864303236346,
0,3,4,0,T,0,125,125,125,,,,,,,None,542.8939008741719,None,541.9197950505398,None,542.3943282263809,None,1,[0.00865865286391454],[0.5171394694802984],542.8939008741719,None,[1 3 3 3 1 2 3 0],space,0,1.4804338955466392,0.0028053547789568256,None,542.9105514142392,None,1,544.3926229868345,None,None,544.8922155830737,None,,,,,,,,,,,,,,,,,,,,,,,,,,,,,,,,,,,,,,,,,,,,,,,04_UA,4,30,M,2022-11-24_17h28.31.222,dynamic target,2022.1.3,120.09864303236346,
0,2,2,2,T,0,126,126,126,,,,,,,None,545.9163252392451,None,544.9338311251598,None,545.4167513085957,None,1,[0.009454666509782328],[0.5172571717396295],545.9163252392451,None,[0 0 0 1 2 0 2 0],space,0,0.8891878647907561,0.0023085678585630376,None,545.9329870043235,None,1,546.8238859898071,None,None,547.323465116033,None,,,,,,,,,,,,,,,,,,,,,,,,,,,,,,,,,,,,,,,,,,,,,,,04_UA,4,30,M,2022-11-24_17h28.31.222,dynamic target,2022.1.3,120.09864303236346,
0,3,1,1,T,0,127,127,127,,,,,,,None,548.3475856765009,None,547.373468627858,548.3725677405367,547.8480130287102,None,2,"[0.008659294293238418, 0.8500242299883212]","[0.3499095745175964, 1.3584630329917218]",548.3475856765009,None,[2 0 3 0 2 0 2 3],space,0,2.161468469543024,0.002403820095878473,None,549.2051723568387,None,1,551.3700138901496,None,None,551.8695882056563,None,,,,,,,,,,,,,,,,,,,,,,,,,,,,,,,,,,,,,,,,,,,,,,,04_UA,4,30,M,2022-11-24_17h28.31.222,dynamic target,2022.1.3,120.09864303236346,
0,2,1,2,T,0,128,128,128,,,,,,,None,552.8937203118502,None,551.9112245941918,None,552.3941415704818,None,1,[0.008633316410168845],[0.5170438965285484],552.8937203118502,None,[1 1 1 0 1 0 3 2],space,0,0.9527820427945244,0.002929471331071909,None,552.9103673240569,None,1,553.8678861091129,None,None,554.3674668389119,None,,,,,,,,,,,,,,,,,,,,,,,,,,,,,,,,,,,,,,,,,,,,,,,04_UA,4,30,M,2022-11-24_17h28.31.222,dynamic target,2022.1.3,120.09864303236346,
0,1,1,2,T,0,129,129,129,,,,,,,None,555.391595417245,None,554.4007633648993,None,554.8920189208787,None,1,[0.008971991031557991],[0.5178235537293858],555.391595417245,None,[2 0 3 2 2 2 2 2],space,0,0.6288750461808377,0.0017841994820173568,None,555.4082520508897,None,1,556.0410322263655,None,None,556.5406078247308,None,,,,,,,,,,,,,,,,,,,,,,,,,,,,,,,,,,,,,,,,,,,,,,,04_UA,4,30,M,2022-11-24_17h28.31.222,dynamic target,2022.1.3,120.09864303236346,
0,2,2,1,T,0,130,130,130,,,,,,,None,557.5647347994908,None,556.5906305794318,None,557.0651679245628,None,1,[0.008734982939586189],[0.517698475033967],557.5647347994908,None,[2 1 1 3 1 3 0 2],space,0,3.064017412996918,0.0023348664558398013,None,557.5813875845605,None,1,560.6454519301727,None,None,561.1450159828123,None,,,,,,,,,,,,,,,,,,,,,,,,,,,,,,,,,,,,,,,,,,,,,,,04_UA,4,30,M,2022-11-24_17h28.31.222,dynamic target,2022.1.3,120.09864303236346,
0,1,1,2,T,0,131,131,131,,,,,,,None,562.1691516168668,None,561.1866501263456,None,561.6695735169275,None,1,[0.008666029300002265],[0.5170275400837454],562.1691516168668,None,[1 2 0 1 1 2 0 2],space,0,0.7164115314760693,0.002946469204971436,None,562.1857970255004,None,1,562.9018523513352,None,None,563.4014285911296,None,,,,,,,,,,,,,,,,,,,,,,,,,,,,,,,,,,,,,,,,,,,,,,,04_UA,4,30,M,2022-11-24_17h28.31.222,dynamic target,2022.1.3,120.09864303236346,
0,8,2,2,T,0,132,132,132,,,,,,,None,564.425557810892,None,563.4347504535707,564.4338825998537,563.9259643166519,None,1,[0.0418195807169468],[0.5497157346112544],564.425557810892,None,[1 0 2 0 3 0 1 0],space,0,0.7788742283587453,0.0029480727778263827,None,564.47551680753,None,1,565.2581787836385,None,None,565.7577611170104,None,,,,,,,,,,,,,,,,,,,,,,,,,,,,,,,,,,,,,,,,,,,,,,,04_UA,4,30,M,2022-11-24_17h28.31.222,dynamic target,2022.1.3,120.09864303236346,
0,7,4,2,T,0,133,133,133,,,,,,,None,566.781887771056,None,565.7993907705394,None,566.2823074261147,None,1,[0.008689441465776326],[0.5172000845402636],566.781887771056,None,[1 3 1 0 2 1 3 2],space,0,0.6314292172828573,0.002863404122308566,None,566.7985341418336,None,1,567.4313358051878,None,None,567.9309030649733,None,,,,,,,,,,,,,,,,,,,,,,,,,,,,,,,,,,,,,,,,,,,,,,,04_UA,4,30,M,2022-11-24_17h28.31.222,dynamic target,2022.1.3,120.09864303236346,
0,6,3,2,T,0,134,134,134,,,,,,,None,568.9550306811626,None,567.9725362463627,568.9716809005153,568.4554657305222,None,2,"[0.008698100760284433, 0.20060858803162773]","[0.01732051287399372, 0.7085656777005624]",568.9550306811626,None,[2 3 3 2 2 3 2 2],space,0,0.9549356413567693,0.0027752076066462905,None,569.1631882495302,None,1,570.1207035067256,None,None,570.6202816708076,None,,,,,,,,,,,,,,,,,,,,,,,,,,,,,,,,,,,,,,,,,,,,,,,04_UA,4,30,M,2022-11-24_17h28.31.222,dynamic target,2022.1.3,120.09864303236346,
0,5,4,2,T,0,135,135,135,,,,,,,None,571.6444057591362,None,570.6619113243365,571.6610598270644,571.1448331113455,None,2,"[0.008630750693555456, 0.7003342166883613]","[0.45817192034610343, 1.2078849609547433]",571.6444057591362,None,[2 0 2 0 1 0 2 2],space,0,1.141606614151442,0.003043645729576383,None,572.3521414274429,None,1,573.492831547541,None,None,573.9924055423332,None,,,,,,,,,,,,,,,,,,,,,,,,,,,,,,,,,,,,,,,,,,,,,,,04_UA,4,30,M,2022-11-24_17h28.31.222,dynamic target,2022.1.3,120.09864303236346,
0,4,1,2,T,0,136,136,136,,,,,,,None,575.0165520806842,None,574.0257158590485,575.0248746246438,574.5169646800215,None,2,"[0.008700987191559761, 0.8420612070992775]","[0.3916159429795698, 1.349932345254274]",575.0165520806842,None,[0 1 1 1 3 0 1 2],space,0,0.7797542692305797,0.0025786095548028243,None,575.8658117270578,None,1,576.6484762688834,None,None,577.1480682236934,None,,,,,,,,,,,,,,,,,,,,,,,,,,,,,,,,,,,,,,,,,,,,,,,04_UA,4,30,M,2022-11-24_17h28.31.222,dynamic target,2022.1.3,120.09864303236346,
0,3,1,2,T,0,137,137,137,,,,,,,None,578.1721804455816,None,577.1980746219498,None,577.6726033077863,None,1,[0.010072362835899185],[0.5172020088277804],578.1721804455816,None,[2 1 1 1 3 3 1 2],space,0,0.6483844362235232,0.002552631671733252,None,578.1888252127861,None,1,578.8382764540639,None,None,579.337851411,None,,,,,,,,,,,,,,,,,,,,,,,,,,,,,,,,,,,,,,,,,,,,,,,04_UA,4,30,M,2022-11-24_17h28.31.222,dynamic target,2022.1.3,120.09864303236346,
0,2,4,2,T,0,138,138,138,,,,,,,None,580.3619819136208,None,579.3878748071303,None,579.8624070208276,None,1,[0.009894366231037566],[0.5175147055663274],580.3619819136208,None,[1 2 1 1 2 0 2 2],space,0,0.7144506823904067,0.0022527635173901217,None,580.3786321329734,None,1,581.0946996459633,None,None,581.5942627364589,None,,,,,,,,,,,,,,,,,,,,,,,,,,,,,,,,,,,,,,,,,,,,,,,04_UA,4,30,M,2022-11-24_17h28.31.222,dynamic target,2022.1.3,120.09864303236346,
0,1,3,2,T,0,139,139,139,,,,,,,None,582.6183938805087,None,581.6359010492821,None,582.1188151391406,None,1,[0.008634278554154662],[0.5174739748117645],582.6183938805087,None,[1 1 1 3 2 2 3 2],space,0,0.5211037144101738,0.0020968962201095565,None,582.6350511555828,None,1,583.1595968874007,None,None,583.659172485766,None,,,,,,,,,,,,,,,,,,,,,,,,,,,,,,,,,,,,,,,,,,,,,,,04_UA,4,30,M,2022-11-24_17h28.31.222,dynamic target,2022.1.3,120.09864303236346,
0,5,4,0,T,0,140,140,140,,,,,,,None,584.6832978569529,None,583.7008470393392,None,584.1837386791755,None,1,[0.024918562544371525],[0.5249482286451439],584.6832978569529,None,[3 0 0 1 2 3 3 2],space,0,2.3048336701485823,0.002753719728161741,None,584.7082770345575,None,1,587.0146476773688,None,None,587.5142178235858,None,,,,,,,,,,,,,,,,,,,,,,,,,,,,,,,,,,,,,,,,,,,,,,,04_UA,4,30,M,2022-11-24_17h28.31.222,dynamic target,2022.1.3,120.09864303236346,
0,4,2,2,T,0,141,141,141,,,,,,,None,588.5383499297797,None,587.5475294231595,588.5466718323099,588.0387737541281,None,1,[0.058085904689505696],[0.5584215325220612],588.5383499297797,None,[0 0 0 0 2 3 1 0],space,0,1.4396810116008965,0.002628641032970336,None,588.5966301875186,None,1,590.0370710802982,None,None,590.5366418679446,None,,,,,,,,,,,,,,,,,,,,,,,,,,,,,,,,,,,,,,,,,,,,,,,04_UA,4,30,M,2022-11-24_17h28.31.222,dynamic target,2022.1.3,120.09864303236346,
0,3,3,2,T,0,142,142,142,,,,,,,None,591.5607714084214,None,590.5699489775137,None,591.0611958741991,None,1,[0.009507905133887107],[0.5174425447805788],591.5607714084214,None,[3 3 2 0 0 3 2 1],space,0,0.6508443172319858,0.00237976650055316,None,591.5774261177786,None,1,592.2268536261757,None,None,592.726449429561,None,,,,,,,,,,,,,,,,,,,,,,,,,,,,,,,,,,,,,,,,,,,,,,,04_UA,4,30,M,2022-11-24_17h28.31.222,dynamic target,2022.1.3,120.09864303236346,
0,2,4,2,T,0,143,143,143,,,,,,,None,593.7505709521728,None,592.759761670564,593.7589021554267,593.2509983043818,None,2,"[0.03313815711612733, 0.06663551458814254]","[0.04141034888289141, 0.5666988557222794]",593.7505709521728,None,[0 1 1 3 3 2 0 0],space,0,1.7876701470729586,0.0026645610682862753,None,593.8171833753096,None,1,595.6073231331123,None,None,596.1069105979179,None,,,,,,,,,,,,,,,,,,,,,,,,,,,,,,,,,,,,,,,,,,,,,,,04_UA,4,30,M,2022-11-24_17h28.31.222,dynamic target,2022.1.3,120.09864303236346,
0,5,2,0,T,0,144,144,144,,,,,,,None,597.1310388555363,None,596.1569032054464,597.1560058459858,596.6314495305861,None,1,[0.07524830526381265],[0.5834677394782375],597.1310388555363,None,[1 2 2 3 1 0 2 3],space,0,3.67007853414475,0.002710423256530703,None,597.2142905937293,None,1,600.8861568993569,None,None,601.3857321770076,None,,,,,,,,,,,,,,,,,,,,,,,,,,,,,,,,,,,,,,,,,,,,,,,04_UA,4,30,M,2022-11-24_17h28.31.222,dynamic target,2022.1.3,120.09864303236346,
0,4,3,2,T,0,145,145,145,,,,,,,None,602.4098659509173,None,601.4190457008689,None,601.9102852211182,None,1,[0.008595792801543212],[0.5089102534702761],602.4098659509173,None,[2 3 0 1 2 3 3 1],space,0,0.7383333367656633,0.002685407517446947,None,602.4181877893046,None,1,603.1592213306,None,None,603.6587959668216,None,,,,,,,,,,,,,,,,,,,,,,,,,,,,,,,,,,,,,,,,,,,,,,,04_UA,4,30,M,2022-11-24_17h28.31.222,dynamic target,2022.1.3,120.09864303236346,
0,3,1,2,T,0,146,146,146,,,,,,,None,604.6829232622962,None,603.7004285067818,None,604.1833512559346,None,1,[0.008654162859329517],[0.5171308101860177],604.6829232622962,None,[2 3 3 0 2 1 0 1],space,0,1.4010044339977412,0.0029753335193163366,None,604.6995840652309,None,1,606.0983843360422,None,None,606.5979583308344,None,,,,,,,,,,,,,,,,,,,,,,,,,,,,,,,,,,,,,,,,,,,,,,,04_UA,4,30,M,2022-11-24_17h28.31.222,dynamic target,2022.1.3,120.09864303236346,
0,2,2,2,T,0,147,147,147,,,,,,,None,607.6220862677384,None,606.6312647989745,None,607.1225065642262,None,1,[0.008633316410168845],[0.5174707676655999],607.6220862677384,None,[1 2 3 2 0 2 2 2],space,0,1.452625694425251,0.002492016611768122,None,607.6387393735225,None,1,609.095829523511,None,None,609.5954150640291,None,,,,,,,,,,,,,,,,,,,,,,,,,,,,,,,,,,,,,,,,,,,,,,,04_UA,4,30,M,2022-11-24_17h28.31.222,dynamic target,2022.1.3,120.09864303236346,
0,1,4,2,T,0,148,148,148,,,,,,,None,610.6195327380657,None,609.6287119107311,610.6278591306005,610.1199588074163,None,2,"[0.6918115468160977, 0.8088531341995804]","[0.6999294748586635, 1.3165780264955629]",610.6195327380657,None,[3 3 3 3 0 1 1 1],space,0,1.2081048628895132,0.0024291565496241674,None,611.4355099057517,None,1,612.6428086004111,None,None,613.1423819537742,None,,,,,,,,,,,,,,,,,,,,,,,,,,,,,,,,,,,,,,,,,,,,,,,04_UA,4,30,M,2022-11-24_17h28.31.222,dynamic target,2022.1.3,120.09864303236346,
0,2,1,1,T,0,149,149,149,,,,,,,None,614.1665214364037,None,613.1756871390559,None,613.6669349978848,None,1,[0.008684951461418677],[0.5175454941684166],614.1665214364037,None,[3 3 3 0 0 3 3 1],space,0,1.4686319188544985,0.0024442301360068086,None,614.1831626757477,None,1,615.6569081765227,None,None,616.1564850577463,None,,,,,,,,,,,,,,,,,,,,,,,,,,,,,,,,,,,,,,,,,,,,,,,04_UA,4,30,M,2022-11-24_17h28.31.222,dynamic target,2022.1.3,120.09864303236346,
0,1,4,2,T,0,150,150,150,,,,,,,None,617.1806191523706,None,616.189791846601,None,616.6810400261446,None,1,[0.008608942100408967],[0.5089343070656014],617.1806191523706,None,[3 1 0 0 2 1 3 0],space,0,0.9429415566166881,0.0027447397192190692,None,617.1889332936074,None,1,618.1298012178817,None,None,618.6293745712446,None,,,,,,,,,,,,,,,,,,,,,,,,,,,,,,,,,,,,,,,,,,,,,,,04_UA,4,30,M,2022-11-24_17h28.31.222,dynamic target,2022.1.3,120.09864303236346,
0,8,1,2,T,0,151,151,151,,,,,,,None,619.6535021874339,None,618.6626813600993,None,619.1539324260744,None,1,[0.008685592890742555],[0.5175044426991917],619.6535021874339,None,[2 1 1 3 3 2 3 1],space,0,0.8126425896707588,0.002423062971956824,None,619.6701559346474,None,0,620.4944511562884,None,None,620.9940235475076,None,,,,,,,,,,,,,,,,,,,,,,,,,,,,,,,,,,,,,,,,,,,,,,,04_UA,4,30,M,2022-11-24_17h28.31.222,dynamic target,2022.1.3,120.09864303236346,
0,6,4,0,T,0,152,152,152,,,,,,,None,622.0181556537015,None,621.0356589738993,None,621.518580119479,None,1,[0.00872696507440196],[0.5172161202704046],622.0181556537015,None,[1 2 3 3 3 2 0 3],space,0,0.6563221226590485,0.0025356337976063514,None,622.0348103630587,None,1,622.7009204829834,None,None,623.2004784420456,None,,,,,,,,,,,,,,,,,,,,,,,,,,,,,,,,,,,,,,,,,,,,,,,04_UA,4,30,M,2022-11-24_17h28.31.222,dynamic target,2022.1.3,120.09864303236346,
0,5,4,2,T,0,153,153,153,,,,,,,None,624.2246076618077,None,623.2421129062933,None,623.7250334104439,None,1,[0.008699704333366753],[0.5173719875679126],624.2246076618077,None,[3 1 2 1 2 0 2 0],space,0,1.6018509922650992,0.002483357317487389,None,624.2412649368817,None,1,625.8482250210631,None,None,626.347793563707,None,,,,,,,,,,,,,,,,,,,,,,,,,,,,,,,,,,,,,,,,,,,,,,,04_UA,4,30,M,2022-11-24_17h28.31.222,dynamic target,2022.1.3,120.09864303236346,
0,4,2,2,T,0,154,154,154,,,,,,,None,627.3719250284715,None,626.3894940951631,None,626.872358474258,None,1,[0.009141007627704312],[0.5173636489880664],627.3719250284715,None,[3 0 1 2 2 0 3 0],space,0,2.8703609554245304,0.00241825225316461,None,627.3885784549703,None,1,630.2611309615633,None,None,630.7607049563555,None,,,,,,,,,,,,,,,,,,,,,,,,,,,,,,,,,,,,,,,,,,,,,,,04_UA,4,30,M,2022-11-24_17h28.31.222,dynamic target,2022.1.3,120.09864303236346,
0,3,1,2,T,0,155,155,155,,,,,,,None,631.7848364211201,None,630.7940146316417,None,631.2852567176079,None,1,[0.009090014005550984],[0.5175050841282882],631.7848364211201,None,[0 0 3 3 3 3 2 0],space,0,0.6488991831618023,0.0024458337088617554,None,631.801485678329,None,1,632.450931146744,None,None,632.9505051415363,None,,,,,,,,,,,,,,,,,,,,,,,,,,,,,,,,,,,,,,,,,,,,,,,04_UA,4,30,M,2022-11-24_17h28.31.222,dynamic target,2022.1.3,120.09864303236346,
0,2,2,2,T,0,156,156,156,,,,,,,None,633.9746311541525,None,632.9838144961076,None,633.4750585063615,None,1,[0.008656087147073777],[0.5174900105416782],633.9746311541525,None,[3 1 0 2 1 1 0 0],space,0,0.6828461825080012,0.002463793726519725,None,633.9912951642331,None,1,634.6740045098887,None,None,635.1736083311391,None,,,,,,,,,,,,,,,,,,,,,,,,,,,,,,,,,,,,,,,,,,,,,,,04_UA,4,30,M,2022-11-24_17h28.31.222,dynamic target,2022.1.3,120.09864303236346,
0,7,2,0,T,0,157,157,157,,,,,,,None,636.1977401807612,None,635.206917364996,None,635.6898388312903,None,1,[0.0086894414660037],[0.5164720623904486],636.1977401807612,None,[1 0 2 2 3 0 2 3],space,0,1.317553532035845,0.00310265721691394,None,636.2060623398633,None,0,637.5299366235873,None,None,638.0295096562356,None,,,,,,,,,,,,,,,,,,,,,,,,,,,,,,,,,,,,,,,,,,,,,,,04_UA,4,30,M,2022-11-24_17h28.31.222,dynamic target,2022.1.3,120.09864303236346,
0,6,3,2,T,0,158,158,158,,,,,,,None,639.0536369517105,None,638.0711434790543,None,638.5540716803554,None,1,[0.008636844270995425],[0.517479106245446],639.0536369517105,None,[0 0 3 3 2 1 2 0],space,0,1.1405338238030254,0.0026860489469981985,None,639.0702951889283,None,1,640.2193328687248,None,None,640.7188856963533,None,,,,,,,,,,,,,,,,,,,,,,,,,,,,,,,,,,,,,,,,,,,,,,,04_UA,4,30,M,2022-11-24_17h28.31.222,dynamic target,2022.1.3,120.09864303236346,
0,3,3,0,T,0,159,159,159,,,,,,,None,641.7430120296841,None,640.7689004331893,None,641.2434416268953,None,1,[0.00865288000113651],[0.5174572976522995],641.7430120296841,None,[3 1 3 3 3 2 1 0],space,0,2.5782816760572587,0.0024256286887975875,None,641.7596683426144,None,1,644.3407993554919,None,None,644.8403771988594,None,,,,,,,,,,,,,,,,,,,,,,,,,,,,,,,,,,,,,,,,,,,,,,,04_UA,4,30,M,2022-11-24_17h28.31.222,dynamic target,2022.1.3,120.09864303236346,
0,2,4,2,T,0,160,160,160,,,,,,,None,645.8645025700465,None,644.8736804598535,None,645.3649267151096,None,1,[0.00857654992546486],[0.5173761568576083],645.8645025700465,None,[0 2 1 3 2 0 3 3],space,0,2.3452177323006254,0.0025288987912972516,None,645.8811556758307,None,1,648.2291518670241,None,None,648.7287268239602,None,,,,,,,,,,,,,,,,,,,,,,,,,,,,,,,,,,,,,,,,,,,,,,,04_UA,4,30,M,2022-11-24_17h28.31.222,dynamic target,2022.1.3,120.09864303236346,
0,1,3,2,T,0,161,161,161,,,,,,,None,649.7528573265807,None,648.7704158096905,None,649.253279868071,None,1,[0.008588095651248295],[0.5170894380023583],649.7528573265807,None,[0 3 1 3 2 3 2 1],space,0,0.6323031645770243,0.002772962604467466,None,649.769507225219,None,1,650.4023002292789,None,None,650.9018735826419,None,,,,,,,,,,,,,,,,,,,,,,,,,,,,,,,,,,,,,,,,,,,,,,,04_UA,4,30,M,2022-11-24_17h28.31.222,dynamic target,2022.1.3,120.09864303236346,
0,8,3,2,T,0,162,162,162,,,,,,,None,651.9260060095502,None,650.9435077261752,None,651.4264336824739,None,1,[0.008699062904042876],[0.5174306783403608],651.9260060095502,None,[1 3 0 1 1 3 3 1],space,0,0.811269610453337,0.002787074046636917,None,651.942656228903,None,1,652.7586353208766,None,None,653.2582003356599,None,,,,,,,,,,,,,,,,,,,,,,,,,,,,,,,,,,,,,,,,,,,,,,,04_UA,4,30,M,2022-11-24_17h28.31.222,dynamic target,2022.1.3,120.09864303236346,
0,7,3,2,T,0,163,163,163,,,,,,,None,654.2823362904288,None,653.2998771342355,654.2989810576333,653.7827697362155,None,1,[0.06648285443702662],[0.566814633694321],654.2823362904288,None,[0 0 0 1 2 0 0 3],space,0,0.6764742247667073,0.0024900923240238626,None,654.3489400542713,None,1,655.0233833017377,None,None,655.5229354879368,None,,,,,,,,,,,,,,,,,,,,,,,,,,,,,,,,,,,,,,,,,,,,,,,04_UA,4,30,M,2022-11-24_17h28.31.222,dynamic target,2022.1.3,120.09864303236346,
0,6,4,2,T,0,164,164,164,,,,,,,None,656.5470733669935,None,655.5645741214745,656.5637168513396,656.0474920599082,None,2,"[0.1996637628096778, 0.21630019143458412]","[0.20797444032905332, 0.7248980688812026]",656.5470733669935,None,[0 0 2 0 2 1 2 2],space,0,1.3415663965402018,0.00272742113043023,None,656.7718962283001,None,1,658.112419127804,None,None,658.6119725968615,None,,,,,,,,,,,,,,,,,,,,,,,,,,,,,,,,,,,,,,,,,,,,,,,04_UA,4,30,M,2022-11-24_17h28.31.222,dynamic target,2022.1.3,120.09864303236346,
0,7,4,1,T,0,165,165,165,,,,,,,None,659.6360966851902,None,658.6452764992847,None,659.1365291688329,None,1,[0.009098352585397151],[0.5177113036183982],659.6360966851902,None,[0 1 3 1 0 2 2 3],space,0,1.5799894813208084,0.0022604606679124117,None,659.652773523855,None,1,661.2347371118432,None,None,661.7343114273499,None,,,,,,,,,,,,,,,,,,,,,,,,,,,,,,,,,,,,,,,,,,,,,,,04_UA,4,30,M,2022-11-24_17h28.31.222,dynamic target,2022.1.3,120.09864303236346,
0,6,1,2,T,0,166,166,166,,,,,,,None,662.7584384021101,None,661.7676230269236,662.7667657567887,662.2588625471732,None,4,"[0.009711558907156359, 0.3666133532092317, 0.5256970972443469, 0.8333977435163433]","[0.358231797762528, 0.5175509463165326, 0.5671905112094464, 1.3416777927909607]",662.7584384021101,None,[2 1 0 0 1 3 1 0],space,0,1.2500915359146347,0.002648204623710626,None,663.5994037274094,None,1,664.8483244425901,None,None,665.3479000409552,None,,,,,,,,,,,,,,,,,,,,,,,,,,,,,,,,,,,,,,,,,,,,,,,04_UA,4,30,M,2022-11-24_17h28.31.222,dynamic target,2022.1.3,120.09864303236346,
0,5,2,2,T,0,167,167,167,,,,,,,None,666.3720311850053,None,665.3895765188162,None,665.8724498779201,None,1,[0.024842553183361815],[0.5249690750943046],666.3720311850053,None,[1 3 1 1 1 3 3 0],space,0,2.659971213417066,0.002764944739510611,None,666.397020625477,None,1,669.0614146015586,None,None,669.5609808992003,None,,,,,,,,,,,,,,,,,,,,,,,,,,,,,,,,,,,,,,,,,,,,,,,04_UA,4,30,M,2022-11-24_17h28.31.222,dynamic target,2022.1.3,120.09864303236346,
0,7,4,0,T,0,168,168,168,,,,,,,None,670.5851024218122,None,669.610938548837,None,670.085527529019,None,1,[0.008048974402754538],[0.5167924562795179],670.5851024218122,None,[2 0 0 1 2 0 2 3],space,0,3.0153771948084795,0.0025244087864848552,None,670.60176065903,None,1,673.6158567072808,None,None,674.1154329470753,None,,,,,,,,,,,,,,,,,,,,,,,,,,,,,,,,,,,,,,,,,,,,,,,04_UA,4,30,M,2022-11-24_17h28.31.222,dynamic target,2022.1.3,120.09864303236346,
0,6,1,2,T,0,169,169,169,,,,,,,None,675.1395557525456,None,674.148731718065,None,674.6399808597524,None,1,[0.00925774774304955],[0.5174611462275607],675.1395557525456,None,[1 0 2 2 1 3 2 0],space,0,1.820237432194972,0.002558725249400595,None,675.1562123861905,None,1,676.9796702220018,None,None,677.4792275396348,None,,,,,,,,,,,,,,,,,,,,,,,,,,,,,,,,,,,,,,,,,,,,,,,04_UA,4,30,M,2022-11-24_17h28.31.222,dynamic target,2022.1.3,120.09864303236346,
0,5,4,2,T,0,170,170,170,,,,,,,None,678.5033590043994,None,677.5208796431858,None,678.0037815458894,None,1,[0.008674688594282998],[0.5169021406738921],678.5033590043994,None,[2 1 0 2 1 1 3 2],space,0,0.8088504601994373,0.0028226733682004124,None,678.5200082616083,None,1,679.3276532638964,None,None,679.8272365594123,None,,,,,,,,,,,,,,,,,,,,,,,,,,,,,,,,,,,,,,,,,,,,,,,04_UA,4,30,M,2022-11-24_17h28.31.222,dynamic target,2022.1.3,120.09864303236346,
0,4,1,2,T,0,171,171,171,,,,,,,None,680.8513564784511,None,679.8605228225323,None,680.3517806235142,None,1,[0.008676292167137944],[0.5169252321252316],680.8513564784511,None,[0 2 1 3 0 3 1 1],space,0,0.4927871806423809,0.003013177842603909,None,680.8680070185184,None,1,681.3592532737745,None,None,681.8588471528722,None,,,,,,,,,,,,,,,,,,,,,,,,,,,,,,,,,,,,,,,,,,,,,,,04_UA,4,30,M,2022-11-24_17h28.31.222,dynamic target,2022.1.3,120.09864303236346,
0,3,4,2,T,0,172,172,172,,,,,,,None,682.8829670719109,None,681.9004678263922,682.8996320441355,682.3833831991091,None,2,"[0.008606376383568204, 0.8002862057119273]","[0.4664425085397852, 1.308538994245282]",682.8829670719109,None,[3 1 3 3 0 3 2 2],space,0,0.6135650931560122,0.0021305712537014188,None,683.6906046977634,None,1,684.3067436338953,None,None,684.8063362301345,None,,,,,,,,,,,,,,,,,,,,,,,,,,,,,,,,,,,,,,,,,,,,,,,04_UA,4,30,M,2022-11-24_17h28.31.222,dynamic target,2022.1.3,120.09864303236346,
0,2,1,2,T,0,173,173,173,,,,,,,None,685.8304500555959,None,684.8479613936589,None,685.3308725970859,None,1,[0.008686875749162937],[0.5173854575812129],685.8304500555959,None,[0 2 2 0 2 0 1 2],space,0,0.6327091892651424,0.002554235245042946,None,685.8471159899642,None,1,686.479892958294,None,None,686.979466311657,None,,,,,,,,,,,,,,,,,,,,,,,,,,,,,,,,,,,,,,,,,,,,,,,04_UA,4,30,M,2022-11-24_17h28.31.222,dynamic target,2022.1.3,120.09864303236346,
0,1,3,2,T,0,174,174,174,,,,,,,None,688.0036035492843,None,687.0211068694824,None,687.5040196764825,None,1,[0.00875198081371309],[0.5169791121786602],688.0036035492843,None,[1 1 3 3 2 0 0 0],space,0,0.9241755830250895,0.0029865585299830855,None,688.0202476750597,None,1,688.9444592864037,None,None,689.4440374504857,None,,,,,,,,,,,,,,,,,,,,,,,,,,,,,,,,,,,,,,,,,,,,,,,04_UA,4,30,M,2022-11-24_17h28.31.222,dynamic target,2022.1.3,120.09864303236346,
0,1,3,0,T,0,175,175,175,,,,,,,None,690.4681660288187,None,689.4773381457629,None,689.9685863253065,None,1,[0.008650634998957685],[0.517601619224024],690.4681660288187,None,[0 2 1 0 1 3 1 3],space,0,2.1071900886258845,0.0022857971214307327,None,690.4848274731827,None,1,692.5913509044314,None,None,693.0909265027965,None,,,,,,,,,,,,,,,,,,,,,,,,,,,,,,,,,,,,,,,,,,,,,,,04_UA,4,30,M,2022-11-24_17h28.31.222,dynamic target,2022.1.3,120.09864303236346,
0,8,2,2,T,0,176,176,176,,,,,,,None,694.1150521946983,None,693.1242477238083,None,693.6154801883364,None,1,[0.009043831102644617],[0.517888338079274],694.1150521946983,None,[2 3 2 3 3 1 3 2],space,0,1.2602488881207137,0.002224219918161907,None,694.1317065833408,None,1,695.397295477892,None,None,695.8968678691112,None,,,,,,,,,,,,,,,,,,,,,,,,,,,,,,,,,,,,,,,,,,,,,,,04_UA,4,30,M,2022-11-24_17h28.31.222,dynamic target,2022.1.3,120.09864303236346,
0,7,4,2,T,0,177,177,177,,,,,,,None,696.9209951645859,None,695.9301759408244,None,696.4214237996536,None,1,[0.008684630746756739],[0.517317786799822],696.9209951645859,None,[2 1 1 3 2 3 1 1],space,0,0.7422736363835156,0.0027129889731440926,None,696.9376729653947,None,1,697.6786837359531,None,None,698.1782673521834,None,,,,,,,,,,,,,,,,,,,,,,,,,,,,,,,,,,,,,,,,,,,,,,,04_UA,4,30,M,2022-11-24_17h28.31.222,dynamic target,2022.1.3,120.09864303236346,
0,6,4,2,T,0,178,178,178,,,,,,,None,699.2023840640762,None,698.2198912328494,None,698.7028123784293,None,1,[0.008610545673491288],[0.5177414507909361],699.2023840640762,None,[3 0 1 3 3 1 0 0],space,0,0.956440434275919,0.0020398090207436326,None,699.2190528848761,None,1,700.1765594827772,None,None,700.676132194711,None,,,,,,,,,,,,,,,,,,,,,,,,,,,,,,,,,,,,,,,,,,,,,,,04_UA,4,30,M,2022-11-24_17h28.31.222,dynamic target,2022.1.3,120.09864303236346,
0,8,2,0,T,0,179,179,179,,,,,,,None,701.7002578866126,None,700.709442832141,None,701.2006881252531,None,1,[0.008658011434590662],[0.5178334958820869],701.7002578866126,None,[2 3 1 3 2 3 1 2],space,0,1.5620525549791182,0.0022633470996424876,None,701.7169251038393,None,1,703.2822410381917,None,space,703.7901487378116,None,31.588912403017957,,,,,,,,,,,,,,,,,,,,,,,,,,,,,,,,,,,,,,,,,,,,,,04_UA,4,30,M,2022-11-24_17h28.31.222,dynamic target,2022.1.3,120.09864303236346,
0,7,3,2,T,0,180,180,180,,,,,,,None,736.4123495006635,None,735.4382247548698,None,735.9127758907288,None,1,[0.008654804288653395],[0.5174823133913833],736.4123495006635,None,[2 3 1 3 2 0 0 1],space,0,1.7611727065357172,0.002406385812719236,None,736.428994267868,None,1,738.194157413783,None,None,738.6937304464316,None,,,,,,,,,,,,,,,,,,,,,,,,,,,,,,,,,,,,,,,,,,,,,,,04_UA,4,30,M,2022-11-24_17h28.31.222,dynamic target,2022.1.3,120.09864303236346,
0,6,4,2,T,0,181,181,181,,,,,,,None,739.7178571004771,None,738.7354059621485,None,739.218283811257,None,1,[0.009140045483718495],[0.5175207991437674],739.7178571004771,None,[1 0 3 0 0 2 2 3],space,0,0.9190348486465609,0.0024291565493967937,None,739.7345127719781,None,1,740.6587384947646,None,None,741.1582996609727,None,,,,,,,,,,,,,,,,,,,,,,,,,,,,,,,,,,,,,,,,,,,,,,,04_UA,4,30,M,2022-11-24_17h28.31.222,dynamic target,2022.1.3,120.09864303236346,
0,5,4,2,T,0,182,182,182,,,,,,,None,742.1824336914541,None,741.1999293145014,None,741.6828536672273,None,1,[0.008620487826192402],[0.5172129131244674],742.1824336914541,None,[2 0 3 3 2 3 2 3],space,0,1.1743887780578461,0.0027258175580300303,None,742.1990765343709,None,1,743.3730789596146,None,None,743.8726555201238,None,,,,,,,,,,,,,,,,,,,,,,,,,,,,,,,,,,,,,,,,,,,,,,,04_UA,4,30,M,2022-11-24_17h28.31.222,dynamic target,2022.1.3,120.09864303236346,
0,4,1,2,T,0,183,183,183,,,,,,,None,744.8967792877378,None,743.905956215401,None,744.3972031120862,None,1,[0.00865672857617028],[0.5176619135693272],744.8967792877378,None,[1 1 3 0 3 1 1 1],space,0,0.8604354798769691,0.002082143348388854,None,744.9134307899491,None,1,745.7793615021245,None,None,746.2789326104855,None,,,,,,,,,,,,,,,,,,,,,,,,,,,,,,,,,,,,,,,,,,,,,,,04_UA,4,30,M,2022-11-24_17h28.31.222,dynamic target,2022.1.3,120.09864303236346,
0,3,4,2,T,0,184,184,184,,,,,,,None,747.3030740174028,None,746.3289406123148,None,746.8034972003219,None,1,[0.008633637124830784],[0.5176346528278373],747.3030740174028,None,[2 3 2 0 1 2 3 1],space,0,1.6533712275925154,0.002322358586525297,None,747.3197152567465,None,0,748.9849770865452,None,None,749.4845337627489,None,,,,,,,,,,,,,,,,,,,,,,,,,,,,,,,,,,,,,,,,,,,,,,,04_UA,4,30,M,2022-11-24_17h28.31.222,dynamic target,2022.1.3,120.09864303236346,
0,2,1,2,T,0,185,185,185,,,,,,,None,750.508667151801,None,749.526173679145,None,750.0090893725763,None,1,[0.008686875748935563],[0.5168598063460195],750.508667151801,None,[1 3 1 3 1 1 0 3],space,0,2.6405259662949447,0.00324697878841107,None,750.5253221818729,None,1,753.1730771636129,None,None,753.6726319155289,None,,,,,,,,,,,,,,,,,,,,,,,,,,,,,,,,,,,,,,,,,,,,,,,04_UA,4,30,M,2022-11-24_17h28.31.222,dynamic target,2022.1.3,120.09864303236346,
0,1,1,2,T,0,186,186,186,,,,,,,None,754.6884401949047,None,753.7059422322442,None,754.1888595292488,None,1,[0.008607659241988586],[0.5172132338391293],754.6884401949047,None,[3 1 1 0 2 3 1 2],space,0,0.8606753744004436,0.002620302453124168,None,754.7050795099609,None,1,755.5710204850039,None,None,756.0705867826457,None,,,,,,,,,,,,,,,,,,,,,,,,,,,,,,,,,,,,,,,,,,,,,,,04_UA,4,30,M,2022-11-24_17h28.31.222,dynamic target,2022.1.3,120.09864303236346,
0,8,1,2,T,0,187,187,187,,,,,,,None,757.0947150402641,None,756.1039035136531,757.1030427156574,756.5951532967698,None,2,"[0.008684310032322173, 0.591683164760525]","[0.27501341388824585, 1.091811610959212]",757.0947150402641,None,[1 2 2 3 2 2 3 2],space,0,0.9663703998280653,0.002125439820019892,None,757.6858786473668,None,0,758.6600476517759,None,None,759.1596222879973,None,,,,,,,,,,,,,,,,,,,,,,,,,,,,,,,,,,,,,,,,,,,,,,,04_UA,4,30,M,2022-11-24_17h28.31.222,dynamic target,2022.1.3,120.09864303236346,
0,7,4,2,T,0,188,188,188,,,,,,,None,760.1837495834719,None,759.2012618836787,None,759.6841756528225,None,1,[0.008619846396868525],[0.5172087438345443],760.1837495834719,None,[0 2 2 3 0 0 1 0],space,0,1.7650026803303263,0.002817541934291512,None,760.2004039721145,None,1,761.9738915862769,None,None,762.4734809753702,None,,,,,,,,,,,,,,,,,,,,,,,,,,,,,,,,,,,,,,,,,,,,,,,04_UA,4,30,M,2022-11-24_17h28.31.222,dynamic target,2022.1.3,120.09864303236346,
0,6,4,2,T,0,189,189,189,,,,,,,None,763.4975938386877,None,762.5150974796003,None,762.9980179837506,None,1,[0.007534868893571911],[0.5160445498243007],763.4975938386877,None,[0 3 2 2 3 2 2 1],space,0,1.2346981970929392,0.0027822633280720765,None,763.5142639423458,None,1,764.7465289860255,None,None,765.2461029808178,None,,,,,,,,,,,,,,,,,,,,,,,,,,,,,,,,,,,,,,,,,,,,,,,04_UA,4,30,M,2022-11-24_17h28.31.222,dynamic target,2022.1.3,120.09864303236346,
0,5,3,2,T,0,190,190,190,,,,,,,None,766.2702168062791,None,765.2877409729264,None,765.7706595527892,None,1,[0.008652238571812632],[0.5170108629242804],766.2702168062791,None,[0 2 0 1 0 3 0 0],space,0,0.6538907852500415,0.002933961335429558,None,766.2868820992181,None,1,766.9446549223118,None,None,767.4442295585332,None,,,,,,,,,,,,,,,,,,,,,,,,,,,,,,,,,,,,,,,,,,,,,,,04_UA,4,30,M,2022-11-24_17h28.31.222,dynamic target,2022.1.3,120.09864303236346,
0,4,1,2,T,0,191,191,191,,,,,,,None,None,None,767.4858697956439,None,767.9604552479653,None,1,[0.00865448357421883],[0.5089994121301515],None,None,[2 1 3 0 2 2 2 2],space,0,0.5843383713433923,0.0026385831854440767,None,768.4683574954371,None,1,769.0511911821444,None,None,769.5507674219389,None,,,,,,,,,,,,,,,,,,,,,,,,,,,,,,,,,,,,,,,,,,,,,,,04_UA,4,30,M,2022-11-24_17h28.31.222,dynamic target,2022.1.3,120.09864303236346,
0,5,4,1,T,0,192,192,192,,,,,,,None,770.5749203745819,None,769.5924083004787,None,770.0753374639236,None,1,[0.00879271156827599],[0.5171721823699045],770.5749203745819,None,[3 3 1 0 2 2 1 0],space,0,1.2779763878263566,0.0029246606118249474,None,770.5915478231979,None,1,771.873787578531,None,None,772.3733654218986,None,,,,,,,,,,,,,,,,,,,,,,,,,,,,,,,,,,,,,,,,,,,,,,,04_UA,4,30,M,2022-11-24_17h28.31.222,dynamic target,2022.1.3,120.09864303236346,
0,4,4,2,T,0,193,193,193,,,,,,,None,773.397457182195,None,772.4149989240026,None,772.8895968841936,None,1,[0.008216708140480478],[0.5161122206054642],773.397457182195,None,[2 1 2 1 1 3 3 1],space,0,1.166124604156039,0.0018553981235527317,None,773.405822317054,None,1,774.5714880868958,None,None,775.0710630438318,None,,,,,,,,,,,,,,,,,,,,,,,,,,,,,,,,,,,,,,,,,,,,,,,04_UA,4,30,M,2022-11-24_17h28.31.222,dynamic target,2022.1.3,120.09864303236346,
0,3,2,2,T,0,194,194,194,,,,,,,None,776.0951929050233,None,775.1127013566548,None,775.5956176915155,None,1,[0.00865704929083222],[0.5174268297648723],776.0951929050233,None,[0 0 0 3 1 3 3 1],space,0,0.5882818781076367,0.0023836150760416785,None,776.1118521043849,None,0,776.7030048071912,None,None,777.2025788019835,None,,,,,,,,,,,,,,,,,,,,,,,,,,,,,,,,,,,,,,,,,,,,,,,04_UA,4,30,M,2022-11-24_17h28.31.222,dynamic target,2022.1.3,120.09864303236346,
0,2,2,2,T,0,195,195,195,,,,,,,None,778.2267077010312,None,777.2442183976649,None,777.7271337703818,None,1,[0.008648069282116921],[0.5173764775722702],778.2267077010312,None,[3 1 1 0 3 3 3 1],space,0,2.120264340150243,0.002579892413223206,None,778.2433595239569,None,1,780.3748752821085,None,None,780.874451521903,None,,,,,,,,,,,,,,,,,,,,,,,,,,,,,,,,,,,,,,,,,,,,,,,04_UA,4,30,M,2022-11-24_17h28.31.222,dynamic target,2022.1.3,120.09864303236346,
0,1,4,2,T,0,196,196,196,,,,,,,None,781.8985772138047,None,780.9161356969145,781.9152316024473,781.3906772113352,None,2,"[0.00939790002485097, 0.8087883498494648]","[0.4997666801259584, 1.3165860443605197]",781.8985772138047,None,[0 1 3 0 1 1 2 1],space,0,3.0340963440680753,0.0024326844102233736,None,782.7062321582458,None,1,785.7453096291032,None,None,786.2448743231719,None,,,,,,,,,,,,,,,,,,,,,,,,,,,,,,,,,,,,,,,,,,,,,,,04_UA,4,30,M,2022-11-24_17h28.31.222,dynamic target,2022.1.3,120.09864303236346,
0,8,2,2,T,0,197,197,197,,,,,,,None,787.2690009772174,None,786.278179187739,None,786.7694286501411,None,1,[0.009734971073157794],[0.5175567191793107],787.2690009772174,None,[3 3 1 3 0 3 2 3],space,0,1.0134686222033906,0.0023560336198897858,None,787.2856563280039,None,1,788.3014624265203,None,None,788.8010284034474,None,,,,,,,,,,,,,,,,,,,,,,,,,,,,,,,,,,,,,,,,,,,,,,,04_UA,4,30,M,2022-11-24_17h28.31.222,dynamic target,2022.1.3,120.09864303236346,
0,7,4,2,T,0,198,198,198,,,,,,,None,789.8251576232097,None,788.8343326265853,789.8334894678927,789.3255933139986,None,1,[0.1247900522027976],[0.6250977778647666],789.8251576232097,None,[1 3 0 2 1 2 2 0],space,0,1.069988156769341,0.002540444516853313,None,789.9500544733754,None,1,791.0241382639141,None,None,791.5237116172773,None,,,,,,,,,,,,,,,,,,,,,,,,,,,,,,,,,,,,,,,,,,,,,,,04_UA,4,30,M,2022-11-24_17h28.31.222,dynamic target,2022.1.3,120.09864303236346,
0,6,4,2,T,0,199,199,199,,,,,,,None,792.5478424406125,None,791.5653964337179,None,792.0482669063903,None,1,[0.008746849379804189],[0.5174957834046836],792.5478424406125,None,[3 3 2 2 3 2 2 2],space,0,1.4307051719940773,0.002449682283668153,None,792.5644968292551,None,1,793.9965994630596,None,None,794.4961734578519,None,,,,,,,,,,,,,,,,,,,,,,,,,,,,,,,,,,,,,,,,,,,,,,,04_UA,4,30,M,2022-11-24_17h28.31.222,dynamic target,2022.1.3,120.09864303236346,
0,3,2,0,T,0,200,200,200,,,,,,,None,795.520306846904,None,794.5378130535333,None,795.0207287469649,None,1,[0.008633316410168845],[0.5169358157070292],795.520306846904,None,[3 3 3 1 2 0 2 0],space,0,1.4349661862154335,0.00295480778459023,None,795.5369561041131,None,1,796.9690670764973,None,None,797.4686401091456,None,,,,,,,,,,,,,,,,,,,,,,,,,,,,,,,,,,,,,,,,,,,,,,,04_UA,4,30,M,2022-11-24_17h28.31.222,dynamic target,2022.1.3,120.09864303236346,
0,2,3,2,T,0,201,201,201,,,,,,,None,798.4927683667642,None,797.5102845155462,None,797.9931931532564,None,1,[0.0083834797342206],[0.5172520403061753],798.4927683667642,None,[2 0 1 0 2 0 2 3],space,0,0.9253048191437756,0.0024795087424536177,None,798.5094352632763,None,1,799.433644629618,None,None,799.9332093236867,None,,,,,,,,,,,,,,,,,,,,,,,,,,,,,,,,,,,,,,,,,,,,,,,04_UA,4,30,M,2022-11-24_17h28.31.222,dynamic target,2022.1.3,120.09864303236346,
0,1,2,2,T,0,202,202,202,,,,,,,None,800.9573343741591,None,799.9748447500784,None,800.4577601227953,None,1,[0.008213500994315837],[0.5170185600748027],800.9573343741591,None,[1 3 1 0 0 3 3 1],space,0,0.6049837325115277,0.002547820952941038,None,800.9739884420873,None,1,801.581801947828,None,None,802.0813794704809,None,,,,,,,,,,,,,,,,,,,,,,,,,,,,,,,,,,,,,,,,,,,,,,,04_UA,4,30,M,2022-11-24_17h28.31.222,dynamic target,2022.1.3,120.09864303236346,
0,8,3,2,T,0,203,203,203,,,,,,,None,803.1055022759512,None,802.1230530619104,803.1221566645937,802.6059299488749,None,1,[0.10800994343549064],[0.6089263854148612],803.1055022759512,None,[3 0 3 3 0 1 2 1],space,0,0.6856110631044885,0.001988815398817678,None,803.2137489067642,None,1,803.9048378835788,None,None,804.4043968047845,None,,,,,,,,,,,,,,,,,,,,,,,,,,,,,,,,,,,,,,,,,,,,,,,04_UA,4,30,M,2022-11-24_17h28.31.222,dynamic target,2022.1.3,120.09864303236346,
0,7,3,2,T,0,204,204,204,,,,,,,None,805.4285231381156,None,804.437704555783,805.4368501720795,804.9289569046167,None,2,"[0.008789825136773288, 0.7415668896808256]","[0.4500911951975013, 1.241590141489496]",805.4285231381156,None,[1 3 3 1 2 1 0 3],space,0,0.8167656966127197,0.0023938779429499846,None,806.1695781672892,None,1,806.9855303192361,None,None,807.4851043140284,None,,,,,,,,,,,,,,,,,,,,,,,,,,,,,,,,,,,,,,,,,,,,,,,04_UA,4,30,M,2022-11-24_17h28.31.222,dynamic target,2022.1.3,120.09864303236346,
0,6,2,2,T,0,205,205,205,,,,,,,None,808.5092508523793,None,807.518414310029,None,808.0096583202829,None,1,[0.008708684342082051],[0.5176904571690102],808.5092508523793,None,[2 3 3 2 0 2 0 2],space,0,0.9724934830373968,0.0023101714314179844,None,808.5258859981458,None,1,809.5000742454307,None,None,809.9996267523445,None,,,,,,,,,,,,,,,,,,,,,,,,,,,,,,,,,,,,,,,,,,,,,,,04_UA,4,30,M,2022-11-24_17h28.31.222,dynamic target,2022.1.3,120.09864303236346,
0,2,4,0,T,0,206,206,206,,,,,,,None,811.0237562928215,None,810.0496321884572,None,810.524189738608,None,1,[0.009491869403746023],[0.5174322819132158],811.0237562928215,None,[0 3 1 0 1 2 2 3],space,0,2.538156109875672,0.0022315963537948846,None,811.0404132471809,None,1,813.5799129388139,None,None,814.0794850093184,None,,,,,,,,,,,,,,,,,,,,,,,,,,,,,,,,,,,,,,,,,,,,,,,04_UA,4,30,M,2022-11-24_17h28.31.222,dynamic target,2022.1.3,120.09864303236346,
0,3,4,1,T,0,207,207,207,,,,,,,None,815.1036421312511,None,814.1211823336286,None,814.6040419020045,None,1,[0.008674367879621059],[0.5173261253796682],815.1036421312511,None,[1 0 2 1 3 1 1 0],space,0,2.3783677558569707,0.0026873318051912065,None,815.1202654105772,None,1,817.5015687754827,None,None,818.0011421288459,None,,,,,,,,,,,,,,,,,,,,,,,,,,,,,,,,,,,,,,,,,,,,,,,04_UA,4,30,M,2022-11-24_17h28.31.222,dynamic target,2022.1.3,120.09864303236346,
0,2,4,2,T,0,208,208,208,,,,,,,None,819.0252762234702,None,818.0344482762713,None,818.5256964558151,None,1,[0.008646144994600036],[0.5087402747305987],819.0252762234702,None,[3 1 0 3 2 3 3 3],space,0,3.3286233172887023,0.002942941344144856,None,819.0335948547116,None,1,822.3640906121383,None,None,822.8636649276452,None,,,,,,,,,,,,,,,,,,,,,,,,,,,,,,,,,,,,,,,,,,,,,,,04_UA,4,30,M,2022-11-24_17h28.31.222,dynamic target,2022.1.3,120.09864303236346,
0,1,1,2,T,0,209,209,209,,,,,,,None,823.8877912609761,None,822.8969752443605,None,823.3882182924707,None,1,[0.008645824279710723],[0.5174560147938791],823.8877912609761,None,[0 3 2 2 3 2 1 0],space,0,0.7295136851705593,0.0024509651420885348,None,823.9044472531917,None,1,824.6371624198174,None,None,825.1367271138861,None,,,,,,,,,,,,,,,,,,,,,,,,,,,,,,,,,,,,,,,,,,,,,,,04_UA,4,30,M,2022-11-24_17h28.31.222,dynamic target,2022.1.3,120.09864303236346,
0,7,3,0,T,0,210,210,210,,,,,,,None,826.1608595407944,None,825.1783618988485,None,825.6612811201406,None,1,[0.008734982939586189],[0.516971094313476],826.1608595407944,None,[3 0 1 1 0 2 0 2],space,0,2.3128034280441625,0.002979182094350108,None,826.1775071944304,None,1,828.4922013433453,None,None,828.991775658852,None,,,,,,,,,,,,,,,,,,,,,,,,,,,,,,,,,,,,,,,,,,,,,,,04_UA,4,30,M,2022-11-24_17h28.31.222,dynamic target,2022.1.3,120.09864303236346,
0,6,1,2,T,0,211,211,211,,,,,,,None,830.0159007093245,None,829.0417926406902,None,829.5163303065359,None,1,[0.008639730702498127],[0.5176269556775424],830.0159007093245,None,[1 1 0 1 2 1 1 3],space,0,1.4973884730582085,0.002335828599825618,None,830.0325570222548,None,1,831.5312996606518,None,None,832.0308688447251,None,,,,,,,,,,,,,,,,,,,,,,,,,,,,,,,,,,,,,,,,,,,,,,,04_UA,4,30,M,2022-11-24_17h28.31.222,dynamic target,2022.1.3,120.09864303236346,
0,5,1,2,T,0,212,212,212,,,,,,,None,833.0549810666133,None,832.0724904803889,None,832.5554052116764,None,1,[0.008661539295189868],[0.5175050841280608],833.0549810666133,None,[1 3 2 0 2 2 0 0],space,0,1.369637904351066,0.002413120819028336,None,833.0716453974088,None,1,834.4454748291954,None,None,834.9450331089722,None,,,,,,,,,,,,,,,,,,,,,,,,,,,,,,,,,,,,,,,,,,,,,,,04_UA,4,30,M,2022-11-24_17h28.31.222,dynamic target,2022.1.3,120.09864303236346,
0,6,1,1,T,0,213,213,213,,,,,,,None,835.9691639323074,None,834.9783498399794,None,835.469594170948,None,1,[0.008683668602998296],[0.5177324707819935],835.9691639323074,None,[0 1 0 2 0 2 0 3],space,0,1.2710412552412436,0.0022601399534778466,None,835.9858131895163,None,1,837.2597278351733,None,None,837.7593056785408,None,,,,,,,,,,,,,,,,,,,,,,,,,,,,,,,,,,,,,,,,,,,,,,,04_UA,4,30,M,2022-11-24_17h28.31.222,dynamic target,2022.1.3,120.09864303236346,
0,5,3,2,T,0,214,214,214,,,,,,,None,838.783440671166,None,837.8009471985098,None,838.2838571190786,None,1,[0.008710608629598937],[0.5171567880688599],838.783440671166,None,[0 1 1 1 1 3 0 0],space,0,1.0329667872347272,0.002725176128478779,None,838.8000828726537,None,1,839.8325391905229,None,None,840.3321083745959,None,,,,,,,,,,,,,,,,,,,,,,,,,,,,,,,,,,,,,,,,,,,,,,,04_UA,4,30,M,2022-11-24_17h28.31.222,dynamic target,2022.1.3,120.09864303236346,
0,4,1,2,T,0,215,215,215,,,,,,,None,841.3562359907852,None,840.3654154841653,841.364571363329,840.8566675122842,None,1,[0.15809241519605166],[0.658246197848257],841.3562359907852,None,[0 1 1 0 0 1 2 1],space,0,3.3107325738499185,0.002887778432750565,None,841.5144403353778,None,1,844.8282906841708,None,None,845.3278515296643,None,,,,,,,,,,,,,,,,,,,,,,,,,,,,,,,,,,,,,,,,,,,,,,,04_UA,4,30,M,2022-11-24_17h28.31.222,dynamic target,2022.1.3,120.09864303236346,
