tar_letter,tar_pos,tar_ori,tar_pos_type,block,trials.thisRepN,trials.thisTrialN,trials.thisN,trials.thisIndex,instructions_key.keys,instructions_key.rt,instructions_key.started,instructions_key.stopped,instruction_text.started,instruction_text.stopped,fix_key.keys,fix_key.started,fix_key.stopped,fixcross.started,fixcross.stopped,roi.started,roi.stopped,roi.numLooks,roi.timesOn,roi.timesOff,RedFixCross.started,RedFixCross.stopped,distori,search_resp.keys,search_resp.corr,search_resp.rt,search_resp.started,search_resp.stopped,fixcross_shape.started,fixcross_shape.stopped,correct,feedback_text.started,feedback_text.stopped,break_key.keys,break_key.started,break_key.stopped,break_key.rt,text_q1.started,text_q1.stopped,key_resp1.keys,key_resp1.rt,key_resp1.started,key_resp1.stopped,text_q2.started,text_q2.stopped,key_resp_2.keys,key_resp_2.rt,key_resp_2.started,key_resp_2.stopped,image.started,image.stopped,text_q1_2.started,text_q1_2.stopped,slider.response,slider.rt,slider.started,slider.stopped,mouse.x,mouse.y,mouse.leftButton,mouse.midButton,mouse.rightButton,mouse.time,mouse.started,mouse.stopped,key_resp_3.keys,key_resp_3.rt,key_resp_3.started,key_resp_3.stopped,text_q4.started,text_q4.stopped,key_resp1_3.keys,key_resp1_3.rt,key_resp1_3.started,key_resp1_3.stopped,finish_text.started,finish_text.stopped,key_resp.keys,key_resp.rt,key_resp.started,key_resp.stopped,participant,group,age,gender,date,expName,psychopyVersion,frameRate,
,,,,,,,,,space,10.38114756559844,57.97917503865483,None,,,,,,,,,,,,,,,,,,,,,,,,,,,,,,,,,,,,,,,,,,,,,,,,,,,,,,,,,,,,,,,,,,,,,,,,,,05_YY,5,26,F,2022-11-24_18h41.38.992,dynamic target,2022.1.3,120.09679270559678,
1,3,1,0,mix,0,0,0,0,,,,,57.97917503865483,None,None,135.2216497110203,None,134.2736462075336,None,134.7220761010858,None,1,[0.008946975292019488],[0.5169957893376704],135.2216497110203,None,[0 3 1 3 2 3 3 1],space,0,3.1411879371526084,0.0067850381492462475,None,135.24662824719508,None,1,138.39394368957164,None,None,138.8935203462949,None,,,,,,,,,,,,,,,,,,,,,,,,,,,,,,,,,,,,,,,,,,,,,,05_YY,5,26,F,2022-11-24_18h41.38.992,dynamic target,2022.1.3,120.09679270559678,
0,2,1,2,mix,0,1,1,1,,,,,,,None,139.92597586237753,None,138.9351280950168,None,139.42640610101807,None,1,[0.008632033551293716],[0.5175390798758599],139.92597586237753,None,[2 3 3 1 3 2 2 1],space,0,3.86379482090706,0.0023837112903493107,None,139.94263121316453,None,1,143.80601064066923,None,None,144.30558569381964,None,,,,,,,,,,,,,,,,,,,,,,,,,,,,,,,,,,,,,,,,,,,,,,05_YY,5,26,F,2022-11-24_18h41.38.992,dynamic target,2022.1.3,120.09679270559678,
0,1,2,2,mix,0,2,2,2,,,,,,,None,145.33803030560557,None,144.36390395623948,None,144.83845669567108,None,1,[0.008643258563097334],[0.5172190067023621],145.33803030560557,None,[0 3 0 3 0 1 1 1],space,0,2.756512899621157,0.0027823595419249614,None,145.3546721863795,None,0,148.11899858789366,None,None,148.61857043389836,None,,,,,,,,,,,,,,,,,,,,,,,,,,,,,,,,,,,,,,,,,,,,,,05_YY,5,26,F,2022-11-24_18h41.38.992,dynamic target,2022.1.3,120.09679270559678,
1,6,3,0,mix,0,3,3,3,,,,,,,None,149.65102306354947,None,148.67687298130204,149.67599871329367,149.1514472086128,None,5,"[0.18339551454937464, 0.517348575401229, 0.7249766439581435, 0.8585728777425174, 0.9002410811672235]","[0.2333657361987207, 0.6925167982290077, 0.7928469097696507, 0.8919281586458965, 1.4078139547409592]",149.65102306354947,None,[3 3 3 2 2 0 0 0],space,0,9.551905641913436,0.0028881953621748835,None,150.55858156910926,None,1,160.11710091958503,None,None,160.6166724448746,None,,,,,,,,,,,,,,,,,,,,,,,,,,,,,,,,,,,,,,,,,,,,,,05_YY,5,26,F,2022-11-24_18h41.38.992,dynamic target,2022.1.3,120.09679270559678,
1,5,1,2,mix,0,4,4,4,,,,,,,None,161.64913052667453,None,160.6749887830074,None,161.14955467173786,None,1,[0.008650634998957685],[0.5172023295426698],161.64913052667453,None,[0 2 0 3 3 0 2 0],space,0,4.395915190228152,0.002672995862667449,None,161.66581249677347,None,1,166.06204031574998,None,None,166.56161216175468,None,,,,,,,,,,,,,,,,,,,,,,,,,,,,,,,,,,,,,,,,,,,,,,05_YY,5,26,F,2022-11-24_18h41.38.992,dynamic target,2022.1.3,120.09679270559678,
0,4,3,2,mix,0,5,5,5,,,,,,,None,167.59406639497865,None,166.61989482485296,None,167.0944796357453,None,1,[0.008641975704449578],[0.5174848791084514],167.59406639497865,None,[2 0 0 1 1 3 3 1],space,0,4.274582441451457,0.0025113557021541055,None,167.6107233493385,None,1,171.8904021985627,None,None,172.38997500671093,None,,,,,,,,,,,,,,,,,,,,,,,,,,,,,,,,,,,,,,,,,,,,,,05_YY,5,26,F,2022-11-24_18h41.38.992,dynamic target,2022.1.3,120.09679270559678,
1,3,3,2,mix,0,6,6,6,,,,,,,None,173.42243244708152,None,172.43993256013346,None,172.92285306428403,None,1,[0.008888925948667747],[0.5174922555434023],173.42243244708152,None,[2 1 2 3 1 2 0 1],space,0,2.8303227998876537,0.002505262124032015,None,173.4390849114361,None,1,176.26998332604762,None,None,176.76957601850125,None,,,,,,,,,,,,,,,,,,,,,,,,,,,,,,,,,,,,,,,,,,,,,,05_YY,5,26,F,2022-11-24_18h41.38.992,dynamic target,2022.1.3,120.09679270559678,
0,2,2,2,mix,0,7,7,7,,,,,,,None,177.80203057244034,None,176.81953453406732,None,177.3024470203527,None,1,[0.009122726894929656],[0.5172141959828878],177.80203057244034,None,[3 3 1 0 0 3 2 1],space,0,3.906913295767481,0.002712764473471907,None,177.8186817539372,None,1,181.72369218197218,None,None,182.22326242440403,None,,,,,,,,,,,,,,,,,,,,,,,,,,,,,,,,,,,,,,,,,,,,,,05_YY,5,26,F,2022-11-24_18h41.38.992,dynamic target,2022.1.3,120.09679270559678,
1,1,2,2,mix,0,8,8,8,,,,,,,None,183.25571729905732,None,182.27326487787013,None,182.75614048197622,None,1,[0.00805923727057234],[0.5165544860437876],183.25571729905732,None,[0 2 2 2 2 2 2 3],space,0,2.2451148629716045,0.002719820194215572,None,183.2723745741314,None,1,185.52045662062392,None,None,186.0200278251993,None,,,,,,,,,,,,,,,,,,,,,,,,,,,,,,,,,,,,,,,,,,,,,,05_YY,5,26,F,2022-11-24_18h41.38.992,dynamic target,2022.1.3,120.09679270559678,
1,2,3,1,mix,0,9,9,9,,,,,,,None,187.05248205842327,None,186.061656099655,None,186.55292993636704,None,1,[0.008729210076126037],[0.5176423499779048],187.05248205842327,None,[2 2 3 2 2 3 3 2],space,0,2.8318045013566007,0.0023304726664719055,None,187.0691412577853,None,1,189.90005538741207,None,None,190.39963236485045,None,,,,,,,,,,,,,,,,,,,,,,,,,,,,,,,,,,,,,,,,,,,,,,05_YY,5,26,F,2022-11-24_18h41.38.992,dynamic target,2022.1.3,120.09679270559678,
0,1,3,2,mix,0,10,10,10,,,,,,,None,191.43208114592653,None,190.44958061754915,None,190.9325065738476,None,1,[0.009125292612225167],[0.5175291377236135],191.43208114592653,None,[2 2 0 2 1 1 3 1],space,0,3.1397905836247446,0.0024898678248064243,None,191.4487268752746,None,1,194.58774158228425,None,None,195.0872980339879,None,,,,,,,,,,,,,,,,,,,,,,,,,,,,,,,,,,,,,,,,,,,,,,05_YY,5,26,F,2022-11-24_18h41.38.992,dynamic target,2022.1.3,120.09679270559678,
1,8,3,2,mix,0,11,11,11,,,,,,,None,196.11975451221406,None,195.14562206926985,196.1447320862453,195.62018218513822,None,3,"[0.008601886378528434, 0.366592186044727, 0.3999413733699839]","[0.3002738581990343, 0.3748002348911541, 0.9002811704922351]",196.11975451221406,None,[2 1 3 2 1 0 3 0],space,0,3.7492692395871927,0.0026662608561309753,None,196.51941910888218,None,1,200.26622487161058,None,None,200.76579254832512,None,,,,,,,,,,,,,,,,,,,,,,,,,,,,,,,,,,,,,,,,,,,,,,05_YY,5,26,F,2022-11-24_18h41.38.992,dynamic target,2022.1.3,120.09679270559678,
1,1,4,1,mix,0,12,12,12,,,,,,,None,201.78993129331047,None,200.8074730992612,201.80656226978772,201.2903666633847,None,6,"[0.06688791698070418, 0.5422780422422875, 0.5586354491624661, 0.6085829000749072, 0.6921601635895058, 0.8419980263224716]","[0.26670498137082177, 0.5505665904538546, 0.5667203436005366, 0.658480640223388, 0.8336414866143969, 1.3494599326431853]",201.78993129331047,None,[2 1 1 0 1 3 0 2],space,0,1.9974484626054618,0.003216286400856916,None,202.6392044096974,None,1,204.6374994908656,None,None,205.1370690918681,None,,,,,,,,,,,,,,,,,,,,,,,,,,,,,,,,,,,,,,,,,,,,,,05_YY,5,26,F,2022-11-24_18h41.38.992,dynamic target,2022.1.3,120.09679270559678,
1,8,4,2,mix,0,13,13,13,,,,,,,None,206.16953102224306,None,205.1953944100087,None,205.66994779086963,None,1,[0.008370009721147653],[0.5170660258363569],206.16953102224306,None,[0 0 3 2 0 1 3 0],space,0,4.321980531980444,0.0022332961416395847,None,206.18619759804005,None,1,210.5074811491977,None,None,211.00706646521547,None,,,,,,,,,,,,,,,,,,,,,,,,,,,,,,,,,,,,,,,,,,,,,,05_YY,5,26,F,2022-11-24_18h41.38.992,dynamic target,2022.1.3,120.09679270559678,
0,7,4,2,mix,0,14,14,14,,,,,,,None,212.03120521020173,None,211.04037636500198,212.0395219812981,211.53162229954341,None,3,"[0.008656087147755898, 0.18439710625625594, 0.21674149472892168]","[0.10046064238485997, 0.20039338853257505, 0.7255667588297001]",212.03120521020173,None,[2 3 1 0 3 2 3 2],space,0,2.9717993121948894,0.0024763978108239826,None,212.25598509575138,None,1,215.228470348492,None,None,215.7280393080652,None,,,,,,,,,,,,,,,,,,,,,,,,,,,,,,,,,,,,,,,,,,,,,,05_YY,5,26,F,2022-11-24_18h41.38.992,dynamic target,2022.1.3,120.09679270559678,
0,6,2,2,mix,0,15,15,15,,,,,,,None,216.75218029805274,None,215.7780186700802,216.77715434422407,216.2526054052596,None,3,"[0.008646786423014419, 0.36664093466515624, 0.38327479757299443]","[0.2833439757123415, 0.3759050967000803, 0.8835607146420443]",216.75218029805274,None,[3 2 2 3 0 2 2 2],space,0,2.092269980117635,0.002721103053772822,None,217.1351882610761,None,0,219.23341801267907,None,None,219.7329680500904,None,,,,,,,,,,,,,,,,,,,,,,,,,,,,,,,,,,,,,,,,,,,,,,05_YY,5,26,F,2022-11-24_18h41.38.992,dynamic target,2022.1.3,120.09679270559678,
0,7,3,1,mix,0,16,16,16,,,,,,,None,220.76542164188595,None,219.78292624494225,None,220.26584546623417,None,1,[0.00921573412961152],[0.5173126553654583],220.76542164188595,None,[0 0 2 0 0 1 0 3],space,0,5.309415575246021,0.0026665815712476615,None,220.78207987910355,None,1,226.1025481737388,None,None,226.60211360545117,None,,,,,,,,,,,,,,,,,,,,,,,,,,,,,,,,,,,,,,,,,,,,,,05_YY,5,26,F,2022-11-24_18h41.38.992,dynamic target,2022.1.3,120.09679270559678,
1,6,3,2,mix,0,17,17,17,,,,,,,None,227.626241606498,None,226.63541965666263,None,227.12665276261941,None,1,[0.00868495146096393],[0.5088829927290135],227.626241606498,None,[0 3 1 1 1 0 1 2],space,0,3.9761995165536064,0.0018647950628292165,None,227.6345748943968,None,1,231.6145055366569,None,None,232.11407385480078,None,,,,,,,,,,,,,,,,,,,,,,,,,,,,,,,,,,,,,,,,,,,,,,05_YY,5,26,F,2022-11-24_18h41.38.992,dynamic target,2022.1.3,120.09679270559678,
0,1,3,0,mix,0,18,18,18,,,,,,,None,233.13821227907192,None,232.16407887398418,None,232.63863674484946,None,1,[0.008652559286929318],[0.5174117561782623],233.13821227907192,None,[1 0 1 0 1 0 1 2],space,0,3.8475772455549304,0.0026143050899918308,None,233.15487404415035,None,1,237.00157470870363,None,None,237.5011603454356,None,,,,,,,,,,,,,,,,,,,,,,,,,,,,,,,,,,,,,,,,,,,,,,05_YY,5,26,F,2022-11-24_18h41.38.992,dynamic target,2022.1.3,120.09679270559678,
1,8,3,2,mix,0,19,19,19,,,,,,,None,238.5252888275545,None,237.53446767950481,238.53362259652476,238.02571297261693,None,8,"[0.00861856353822077, 0.34997788672808383, 0.9415260306404889, 1.9077332950191703, 1.924128866976389, 2.3329848234643578, 2.3824560131906765, 2.3991363797158556]","[0.07514663873462268, 0.7340070050486247, 1.4251344676158624, 1.9161174161818053, 2.3075123868002265, 2.37348017358363, 2.3907484099772773, 2.9065626867159153]",238.5252888275545,None,[1 0 3 2 0 3 1 1],space,0,3.9113725116139904,0.002953621141386975,None,240.9315694457764,None,1,244.84489311704783,None,None,245.34447586734922,None,,,,,,,,,,,,,,,,,,,,,,,,,,,,,,,,,,,,,,,,,,,,,,05_YY,5,26,F,2022-11-24_18h41.38.992,dynamic target,2022.1.3,120.09679270559678,
0,8,1,0,mix,0,20,20,20,,,,,,,None,246.36860242518014,None,245.39443662791746,246.39357037777336,245.86902945667407,None,2,"[0.008618563539130264, 0.509378817506331]","[0.2832929820915524, 1.0167566966010781]",246.36860242518014,None,[3 3 0 0 3 2 3 3],space,0,3.941363175612423,0.0026078907976625487,None,246.8848419694832,None,1,250.83147056946473,None,None,251.331047226188,None,,,,,,,,,,,,,,,,,,,,,,,,,,,,,,,,,,,,,,,,,,,,,,05_YY,5,26,F,2022-11-24_18h41.38.992,dynamic target,2022.1.3,120.09679270559678,
1,7,1,2,mix,0,21,21,21,,,,,,,None,252.36349584690623,None,251.38938473148391,None,251.85559504265075,None,1,[0.009481285821493657],[0.5164518573701571],252.36349584690623,None,[3 2 3 3 0 2 1 3],space,0,2.118364282398943,0.0030485526631309767,None,252.3718397183875,None,0,254.50334874153214,None,None,255.00293726469562,None,,,,,,,,,,,,,,,,,,,,,,,,,,,,,,,,,,,,,,,,,,,,,,05_YY,5,26,F,2022-11-24_18h41.38.992,dynamic target,2022.1.3,120.09679270559678,
1,6,4,2,mix,0,22,22,22,,,,,,,None,256.0353690478978,None,255.06124269853171,256.06034662192906,255.53579287224693,None,4,"[0.008635240697913105, 0.4581292653037963, 0.48316136081757577, 0.5927681422645037]","[0.21676234117876447, 0.46653134648568084, 0.508158177725818, 1.100334280831703]",256.0353690478978,None,[1 1 3 0 3 3 1 1],space,0,4.670503336553338,0.002410972031611891,None,256.63485455753107,None,1,261.31420121057,None,None,261.8137765844346,None,,,,,,,,,,,,,,,,,,,,,,,,,,,,,,,,,,,,,,,,,,,,,,05_YY,5,26,F,2022-11-24_18h41.38.992,dynamic target,2022.1.3,120.09679270559678,
1,5,3,2,mix,0,23,23,23,,,,,,,None,262.846237552666,None,261.86376620931696,None,262.34666971559363,None,1,[0.008487070551382203],[0.517600336365831],262.846237552666,None,[3 3 3 1 0 2 3 1],space,0,3.64241611372654,0.0018837172237908817,None,262.8628957898836,None,1,266.5097800314752,None,None,267.0093496324777,None,,,,,,,,,,,,,,,,,,,,,,,,,,,,,,,,,,,,,,,,,,,,,,05_YY,5,26,F,2022-11-24_18h41.38.992,dynamic target,2022.1.3,120.09679270559678,
0,4,2,2,mix,0,24,24,24,,,,,,,None,268.0418093178496,None,267.05098624551283,None,267.54222063432917,None,1,[0.008636202841444174],[0.5178161772937528],268.0418093178496,None,[2 3 3 3 1 2 2 1],space,0,5.310805552338934,0.002266650459205266,None,268.05844157718457,None,1,273.37059598715496,None,None,273.8701668710152,None,,,,,,,,,,,,,,,,,,,,,,,,,,,,,,,,,,,,,,,,,,,,,,05_YY,5,26,F,2022-11-24_18h41.38.992,dynamic target,2022.1.3,120.09679270559678,
0,5,1,1,mix,0,25,25,25,,,,,,,None,274.9026262356738,None,273.9284726255655,None,274.40305487074147,None,1,[0.009010797498376633],[0.5174447897825303],274.9026262356738,None,[3 0 1 2 0 2 1 1],space,0,4.5938724306333825,0.002587685778053128,None,274.9192597778665,None,1,279.51534218484267,None,None,280.0149156344202,None,,,,,,,,,,,,,,,,,,,,,,,,,,,,,,,,,,,,,,,,,,,,,,05_YY,5,26,F,2022-11-24_18h41.38.992,dynamic target,2022.1.3,120.09679270559678,
0,4,3,2,mix,0,26,26,26,,,,,,,None,281.04738959159266,None,280.0732794383139,None,280.547798823427,None,1,[0.008655766432639211],[0.5092091594806334],281.04738959159266,None,[2 1 3 1 0 0 3 2],space,0,3.529176597966398,0.0023538848317912198,None,281.0556956187502,None,1,284.5860526991828,None,None,285.08560049159195,None,,,,,,,,,,,,,,,,,,,,,,,,,,,,,,,,,,,,,,,,,,,,,,05_YY,5,26,F,2022-11-24_18h41.38.992,dynamic target,2022.1.3,120.09679270559678,
1,2,1,0,mix,0,27,27,27,,,,,,,None,286.11806755339967,None,285.1356180186449,None,285.6184894534608,None,1,[0.008607659241533838],[0.5170737229864244],286.11806755339967,None,[1 0 0 0 3 0 2 1],space,0,4.801790104477732,0.002918983963354549,None,286.13471937632585,None,1,290.9389410709373,None,None,291.4385446676867,None,,,,,,,,,,,,,,,,,,,,,,,,,,,,,,,,,,,,,,,,,,,,,,05_YY,5,26,F,2022-11-24_18h41.38.992,dynamic target,2022.1.3,120.09679270559678,
0,1,3,2,mix,0,28,28,28,,,,,,,None,292.4626616040796,None,291.4718593781927,None,291.96309216343525,None,1,[0.008631071407762647],[0.5179332381230779],292.4626616040796,None,[0 1 1 2 2 3 0 3],space,0,3.0322338099249464,0.0020501681019595708,None,292.47932144487095,None,1,295.51007284390835,None,None,296.0096325027577,None,,,,,,,,,,,,,,,,,,,,,,,,,,,,,,,,,,,,,,,,,,,,,,05_YY,5,26,F,2022-11-24_18h41.38.992,dynamic target,2022.1.3,120.09679270559678,
1,8,1,2,mix,0,29,29,29,,,,,,,None,297.04209411241754,None,296.06798989235904,None,296.54252082319726,None,1,[0.009210923411046679],[0.5176394635473116],297.04209411241754,None,[3 1 0 3 2 1 2 3],space,0,3.700373091145593,0.0021637010722770356,None,297.05876389536115,None,1,300.76392967755055,None,None,301.2635252564357,None,,,,,,,,,,,,,,,,,,,,,,,,,,,,,,,,,,,,,,,,,,,,,,05_YY,5,26,F,2022-11-24_18h41.38.992,dynamic target,2022.1.3,120.09679270559678,
1,7,2,2,mix,0,30,30,30,,,,,,,None,302.29595030463133,None,301.3218258795523,302.3209285200919,301.79637444969376,None,2,"[0.008677575025103579, 0.15011528086415638]","[0.03386329283421219, 0.6503466764497716]",302.29595030463133,None,[2 1 2 3 1 2 3 2],space,0,3.5298930743911114,0.0028150724319857545,None,302.4458086930981,None,1,305.9761256842048,None,None,306.47570105806943,None,,,,,,,,,,,,,,,,,,,,,,,,,,,,,,,,,,,,,,,,,,,,,,05_YY,5,26,F,2022-11-24_18h41.38.992,dynamic target,2022.1.3,120.09679270559678,
1,6,2,2,mix,0,31,31,31,,,,,,,None,307.5081751755997,None,306.5340568440979,None,307.00859996209147,None,1,[0.008617280679573014],[0.5173232389479381],307.5081751755997,None,[1 1 1 3 1 3 1 0],space,0,4.707141772851173,0.002726555202571035,None,307.52483469567596,None,1,312.22917367561695,None,None,312.7287240337434,None,,,,,,,,,,,,,,,,,,,,,,,,,,,,,,,,,,,,,,,,,,,,,,05_YY,5,26,F,2022-11-24_18h41.38.992,dynamic target,2022.1.3,120.09679270559678,
1,5,2,2,mix,0,32,32,32,,,,,,,None,313.7528554022938,None,312.76201629422667,None,313.25327441592253,None,1,[0.009310986367381702],[0.5174582597956032],313.7528554022938,None,[2 1 3 2 3 1 2 1],space,0,3.133155319194884,0.0019645373040475533,None,313.76949632092237,None,1,316.9084876157658,None,None,317.4080594617705,None,,,,,,,,,,,,,,,,,,,,,,,,,,,,,,,,,,,,,,,,,,,,,,05_YY,5,26,F,2022-11-24_18h41.38.992,dynamic target,2022.1.3,120.09679270559678,
1,4,1,2,mix,0,33,33,33,,,,,,,None,318.4405255614356,None,317.4580301644919,None,317.940953555074,None,1,[0.008962369593973563],[0.5180175860650706],318.4405255614356,None,[1 2 0 1 2 3 3 1],space,0,3.2931072376613884,0.001995646620343905,None,318.4571812329359,None,1,321.75436949593677,None,None,322.2539416626557,None,,,,,,,,,,,,,,,,,,,,,,,,,,,,,,,,,,,,,,,,,,,,,,05_YY,5,26,F,2022-11-24_18h41.38.992,dynamic target,2022.1.3,120.09679270559678,
1,3,1,2,mix,0,34,34,34,,,,,,,None,323.28639846159604,None,322.30392840110653,None,322.7868210030865,None,1,[0.008702270049980143],[0.5172395324361787],323.28639846159604,None,[0 1 1 2 0 2 3 1],space,0,3.4880010121732994,0.0027961502710240893,None,323.30304611523206,None,1,326.79174878296817,None,None,327.29132030825866,None,,,,,,,,,,,,,,,,,,,,,,,,,,,,,,,,,,,,,,,,,,,,,,05_YY,5,26,F,2022-11-24_18h41.38.992,dynamic target,2022.1.3,120.09679270559678,
0,2,1,2,mix,0,35,35,35,,,,,,,None,328.31544558323094,None,327.3246257180399,None,327.81586908686495,None,1,[0.008688800035997701],[0.5176465192680553],328.31544558323094,None,[1 2 0 3 2 0 1 3],space,0,4.730159780655413,0.0024398363448199234,None,328.33207880470945,None,1,333.0614014522598,None,None,333.56097458112316,None,,,,,,,,,,,,,,,,,,,,,,,,,,,,,,,,,,,,,,,,,,,,,,05_YY,5,26,F,2022-11-24_18h41.38.992,dynamic target,2022.1.3,120.09679270559678,
0,1,4,2,mix,0,36,36,36,,,,,,,None,334.5851094775335,None,333.60261375987557,334.60175584831086,334.08552624616095,None,2,"[0.008726644359740021, 0.7337331147764417]","[0.19170939921514218, 1.2414461406324335]",334.5851094775335,None,[3 2 0 3 1 0 0 0],space,0,3.8480836539129086,0.0028753667766068247,None,335.32614205668506,None,0,339.18119765737265,None,None,339.6807598819384,None,,,,,,,,,,,,,,,,,,,,,,,,,,,,,,,,,,,,,,,,,,,,,,05_YY,5,26,F,2022-11-24_18h41.38.992,dynamic target,2022.1.3,120.09679270559678,
1,8,4,2,mix,0,37,37,37,,,,,,,None,340.7132144358775,None,339.73910316009733,None,340.21366487953856,None,1,[0.008739472944398585],[0.517208743834999],340.7132144358775,None,[3 0 2 2 0 0 3 2],space,0,6.300549740748465,0.0028224488678461057,None,340.7298585616527,None,1,347.0411550600593,None,None,347.540707663187,None,,,,,,,,,,,,,,,,,,,,,,,,,,,,,,,,,,,,,,,,,,,,,,05_YY,5,26,F,2022-11-24_18h41.38.992,dynamic target,2022.1.3,120.09679270559678,
1,7,1,2,mix,0,38,38,38,,,,,,,None,348.57318402571946,None,347.5990612042133,None,348.0736088122112,None,1,[0.009680449590632634],[0.5172844324806647],348.57318402571946,None,[2 1 3 0 2 2 3 0],space,0,2.9038395670086175,0.002708595184230944,None,348.5898413007926,None,1,351.49569071823134,None,None,351.99527090281543,None,,,,,,,,,,,,,,,,,,,,,,,,,,,,,,,,,,,,,,,,,,,,,,05_YY,5,26,F,2022-11-24_18h41.38.992,dynamic target,2022.1.3,120.09679270559678,
1,6,3,2,mix,0,39,39,39,,,,,,,None,353.0277196838915,None,352.0368860279723,None,352.5281460739561,None,1,[0.008670198590152722],[0.5177488272265691],353.0277196838915,None,[0 2 1 0 1 1 1 1],space,0,2.976293165217612,0.0023000047794994316,None,353.0443638096667,None,1,356.0251677577917,None,None,356.5247399245106,None,,,,,,,,,,,,,,,,,,,,,,,,,,,,,,,,,,,,,,,,,,,,,,05_YY,5,26,F,2022-11-24_18h41.38.992,dynamic target,2022.1.3,120.09679270559678,
1,5,1,2,mix,0,40,40,40,,,,,,,None,357.5572008927411,None,356.5746891393528,None,357.0576269620924,None,1,[0.009430612914911762],[0.5176006570800382],357.5572008927411,None,[1 3 1 3 2 2 0 0],space,0,3.247239917935076,0.0023519605438195867,None,357.57382705849886,None,1,360.82108101988524,None,None,361.32065318660415,None,,,,,,,,,,,,,,,,,,,,,,,,,,,,,,,,,,,,,,,,,,,,,,05_YY,5,26,F,2022-11-24_18h41.38.992,dynamic target,2022.1.3,120.09679270559678,
1,4,1,2,mix,0,41,41,41,,,,,,,None,362.3531099855454,None,361.3706540364983,362.36974609345543,361.8535325270359,None,2,"[0.008719267924789165, 0.5426978576588226]","[0.24170944732213684, 1.0500683603177094]",362.3531099855454,None,[1 0 2 3 3 3 1 0],space,0,3.646344226189285,0.0027384216409700457,None,362.90265157212707,None,1,366.5495316444294,None,None,367.0491092632962,None,,,,,,,,,,,,,,,,,,,,,,,,,,,,,,,,,,,,,,,,,,,,,,05_YY,5,26,F,2022-11-24_18h41.38.992,dynamic target,2022.1.3,120.09679270559678,
1,3,3,2,mix,0,42,42,42,,,,,,,None,368.0815586858016,None,367.0991049817567,None,367.58198315157915,None,1,[0.00865288000113651],[0.5175743584832162],368.0815586858016,None,[0 2 2 1 2 1 3 1],space,0,2.4349503267594628,0.0025254671445509302,None,368.0982130744442,None,1,370.53780118709346,None,None,371.0373720709537,None,,,,,,,,,,,,,,,,,,,,,,,,,,,,,,,,,,,,,,,,,,,,,,05_YY,5,26,F,2022-11-24_18h41.38.992,dynamic target,2022.1.3,120.09679270559678,
0,2,3,2,mix,0,43,43,43,,,,,,,None,372.0698352841873,None,371.0956973890943,None,371.57025365638765,None,1,[0.00863427855347254],[0.5172539645936922],372.0698352841873,None,[0 3 0 2 3 2 2 3],space,0,3.5978085609622212,0.00272655520166154,None,372.08649159711695,None,1,375.6834152384981,None,None,376.1829870845028,None,,,,,,,,,,,,,,,,,,,,,,,,,,,,,,,,,,,,,,,,,,,,,,05_YY,5,26,F,2022-11-24_18h41.38.992,dynamic target,2022.1.3,120.09679270559678,
0,3,2,1,mix,0,44,44,44,,,,,,,None,377.2071149251924,None,376.22462914968673,377.2237670688328,376.70754259811565,None,2,"[0.008662822154292371, 0.22508424370880675]","[0.08381170589109388, 0.7341282351690097]",377.2071149251924,None,[2 3 0 3 1 2 2 0],space,0,4.580250719281139,0.0024135377489074017,None,377.4402417290112,None,1,382.01968065164147,None,None,382.51925474264743,None,,,,,,,,,,,,,,,,,,,,,,,,,,,,,,,,,,,,,,,,,,,,,,05_YY,5,26,F,2022-11-24_18h41.38.992,dynamic target,2022.1.3,120.09679270559678,
0,4,4,1,mix,0,45,45,45,,,,,,,None,383.551712183018,None,382.57756627006074,None,383.05212734807174,None,1,[0.008633637124148663],[0.5170804579929609],383.551712183018,None,[1 2 3 2 1 3 3 0],space,0,2.915634167265125,0.0029539418555941666,None,383.5683704202356,None,1,386.4825475130674,None,None,386.9821645798308,None,,,,,,,,,,,,,,,,,,,,,,,,,,,,,,,,,,,,,,,,,,,,,,05_YY,5,26,F,2022-11-24_18h41.38.992,dynamic target,2022.1.3,120.09679270559678,
1,2,1,0,mix,0,46,46,46,,,,,,,None,388.01457327158096,None,387.0237495578149,None,387.51499869950294,None,1,[0.008956596730058664],[0.5172767353305971],388.01457327158096,None,[0 0 0 0 1 0 0 0],space,0,2.9325858583442823,0.0028012817037961213,None,388.0312295845115,None,1,390.96206427313064,None,None,391.46163066698745,None,,,,,,,,,,,,,,,,,,,,,,,,,,,,,,,,,,,,,,,,,,,,,,05_YY,5,26,F,2022-11-24_18h41.38.992,dynamic target,2022.1.3,120.09679270559678,
1,1,2,2,mix,0,47,47,47,,,,,,,None,392.4940951630788,None,391.51165043904257,392.51074377885834,391.99450006526604,None,2,"[0.008659294292556297, 0.7832838417243693]","[0.22507205655347207, 1.2835024087262354]",392.4940951630788,None,[1 3 1 3 0 0 1 1],space,0,4.022136752064398,0.0024411192043771734,None,393.2767263505857,None,1,397.2983280827011,None,None,397.7979044187102,None,,,,,,,,,,,,,,,,,,,,,,,,,,,,,,,,,,,,,,,,,,,,,,05_YY,5,26,F,2022-11-24_18h41.38.992,dynamic target,2022.1.3,120.09679270559678,
1,8,3,2,mix,0,48,48,48,,,,,,,None,398.82202937296825,None,397.83958304535827,None,398.32245319731646,None,1,[0.008646144994600036],[0.517310410364189],398.82202937296825,None,[3 2 3 0 1 3 3 1],space,0,2.444875802306342,0.0027336109233147,None,398.8386635565903,None,1,401.28660500180104,None,None,401.78617171637205,None,,,,,,,,,,,,,,,,,,,,,,,,,,,,,,,,,,,,,,,,,,,,,,05_YY,5,26,F,2022-11-24_18h41.38.992,dynamic target,2022.1.3,120.09679270559678,
1,7,4,2,mix,0,49,49,49,,,,,,,None,402.8102848041899,None,401.8361809048456,None,402.310721777837,None,1,[0.008613752818746434],[0.5175207991433126],402.8102848041899,None,[2 2 0 1 1 2 3 0],space,0,8.567759206191113,0.0024395156315222266,None,402.8269513799869,None,1,411.39464316812155,None,None,411.8942227112763,None,,,,,,,,,,,,,,,,,,,,,,,,,,,,,,,,,,,,,,,,,,,,,,05_YY,5,26,F,2022-11-24_18h41.38.992,dynamic target,2022.1.3,120.09679270559678,
1,3,4,0,mix,0,50,50,50,,,,,,,None,412.91835472125604,None,411.94422035402386,412.9433274845687,412.41877565917275,None,2,"[0.008649031426102738, 0.7667840375206652]","[0.3832703075686368, 1.2668409643629275]",412.91835472125604,None,[2 1 3 0 3 3 1 2],space,0,6.445641668779899,0.0024815292445055093,None,413.6843546115715,None,1,420.12887018338824,None,None,420.6284288800941,None,,,,,,,,,,,,,,,,,,,,,,,,,,,,,,,,,,,,,,,,,,,,,,05_YY,5,26,F,2022-11-24_18h41.38.992,dynamic target,2022.1.3,120.09679270559678,
1,2,3,2,mix,0,51,51,51,,,,,,,None,421.65255896578583,None,420.6701309189084,None,421.15299946729374,None,1,[0.00927282132943219],[0.5175336277279712],421.65255896578583,None,[1 1 3 0 3 1 1 3],space,0,3.3248987141578255,0.0026441315485499217,None,421.66923195587515,None,1,424.99139715147703,None,None,425.4909792603491,None,,,,,,,,,,,,,,,,,,,,,,,,,,,,,,,,,,,,,,,,,,,,,,05_YY,5,26,F,2022-11-24_18h41.38.992,dynamic target,2022.1.3,120.09679270559678,
1,1,2,2,mix,0,52,52,52,,,,,,,None,426.5234280414252,None,425.5325879712145,None,426.0238486586277,None,1,[0.008649031426102738],[0.51741303903691],426.5234280414252,None,[0 1 2 3 3 2 1 0],space,0,7.590359643581905,0.002650545839969709,None,426.54008307149707,None,1,434.13361002451256,None,None,434.63317641836846,None,,,,,,,,,,,,,,,,,,,,,,,,,,,,,,,,,,,,,,,,,,,,,,05_YY,5,26,F,2022-11-24_18h41.38.992,dynamic target,2022.1.3,120.09679270559678,
0,8,1,2,mix,0,53,53,53,,,,,,,None,435.6572972033373,None,434.66649433602015,None,435.1577290455507,None,1,[0.00866121858052793],[0.5177719186785907],435.6572972033373,None,[2 2 1 2 2 3 0 0],space,0,4.103125528014971,0.0022804411892138887,None,435.6739586477006,None,1,439.77879319584736,None,None,440.27837402186077,None,,,,,,,,,,,,,,,,,,,,,,,,,,,,,,,,,,,,,,,,,,,,,,05_YY,5,26,F,2022-11-24_18h41.38.992,dynamic target,2022.1.3,120.09679270559678,
1,7,3,2,mix,0,54,54,54,,,,,,,None,441.3108048429194,None,440.3366945292828,441.3358006976832,440.8112469480002,None,2,"[0.008257118180154066, 0.7421393652475672]","[0.35788029455670767, 1.2497443102820398]",441.3108048429194,None,[0 3 1 3 3 3 3 3],space,0,3.5570717127466196,0.0024193106110033114,None,442.0601586831717,None,1,445.6154898097748,None,None,446.11505203434143,None,,,,,,,,,,,,,,,,,,,,,,,,,,,,,,,,,,,,,,,,,,,,,,05_YY,5,26,F,2022-11-24_18h41.38.992,dynamic target,2022.1.3,120.09679270559678,
0,6,1,2,mix,0,55,55,55,,,,,,,None,447.1391914207561,None,446.1567014759612,None,446.6396113965293,None,1,[0.00867180216300767],[0.5171638437905131],447.1391914207561,None,[0 2 1 2 3 3 3 2],space,0,3.4536954539016733,0.002800960988679435,None,447.15583618796063,None,1,450.61122847483875,None,None,451.1108272608696,None,,,,,,,,,,,,,,,,,,,,,,,,,,,,,,,,,,,,,,,,,,,,,,05_YY,5,26,F,2022-11-24_18h41.38.992,dynamic target,2022.1.3,120.09679270559678,
0,5,3,2,mix,0,56,56,56,,,,,,,None,452.1349300858201,None,451.14410765491266,452.1432558369261,451.6353535894541,None,10,"[0.30808293807967857, 0.5079503546621709, 0.5587470578448119, 0.5922293417297624, 0.6503133221322059, 0.6921091699678072, 0.7168131744429047, 0.7583514884527176, 0.774850971941305, 0.7922766792053153]","[0.3330845657055761, 0.5171747480862905, 0.5831675506096872, 0.6250281827960862, 0.6837260109487033, 0.7005814876474687, 0.7248233423788406, 0.7669546576898938, 0.7837366907451724, 1.299523065313224]",452.1349300858201,None,[1 0 0 1 1 3 2 2],space,0,3.194881013918348,0.0028808189263145323,None,452.934256713439,None,1,456.13152570030434,None,None,456.6310965841655,None,,,,,,,,,,,,,,,,,,,,,,,,,,,,,,,,,,,,,,,,,,,,,,05_YY,5,26,F,2022-11-24_18h41.38.992,dynamic target,2022.1.3,120.09679270559678,
0,4,4,2,mix,0,57,57,57,,,,,,,None,457.65522410413996,None,456.6644071253804,None,457.1556482492033,None,1,[0.008620808540399594],[0.5175682649050941],457.65522410413996,None,[2 1 1 0 2 0 0 1],space,0,2.8402094689690784,0.0024606827946627163,None,457.6718784927825,None,1,460.51112895709775,None,None,461.01068380522764,None,,,,,,,,,,,,,,,,,,,,,,,,,,,,,,,,,,,,,,,,,,,,,,05_YY,5,26,F,2022-11-24_18h41.38.992,dynamic target,2022.1.3,120.09679270559678,
0,3,1,2,mix,0,58,58,58,,,,,,,None,462.04314990489274,None,461.0523444718583,None,461.54357629495735,None,1,[0.00864486213595228],[0.5177055307558476],462.04314990489274,None,[1 0 1 2 0 0 2 3],space,0,3.2522331235950332,0.0024991685486384085,None,462.0598107078267,None,1,465.31536380100715,None,None,465.81493564701185,None,,,,,,,,,,,,,,,,,,,,,,,,,,,,,,,,,,,,,,,,,,,,,,05_YY,5,26,F,2022-11-24_18h41.38.992,dynamic target,2022.1.3,120.09679270559678,
1,2,4,2,mix,0,59,59,59,,,,,,,None,466.8473898802358,None,465.86489287971926,None,466.34781434601337,None,1,[0.009538373021314328],[0.5177356779277034],466.8473898802358,None,[1 1 0 2 3 2 3 3],space,0,2.6883232020645664,0.0024555513609811896,None,466.86406575675664,None,1,469.55341453613346,None,space,470.06965183543434,None,48.270061006972355,,,,,,,,,,,,,,,,,,,,,,,,,,,,,,,,,,,,,,,,,,,,,05_YY,5,26,F,2022-11-24_18h41.38.992,dynamic target,2022.1.3,120.09679270559678,
0,1,4,2,mix,0,60,60,60,,,,,,,None,519.3776212405437,None,518.3951213535956,None,518.8780405748876,None,1,[0.00866827430218109],[0.5170445379580997],519.3776212405437,None,[0 0 1 2 3 0 3 1],space,0,3.3243493300424234,0.002999162614287343,None,519.3942781949027,None,1,522.7164379383566,None,None,523.2160149157951,None,,,,,,,,,,,,,,,,,,,,,,,,,,,,,,,,,,,,,,,,,,,,,,05_YY,5,26,F,2022-11-24_18h41.38.992,dynamic target,2022.1.3,120.09679270559678,
0,2,1,1,mix,0,61,61,61,,,,,,,None,524.2484681868755,None,523.2742921267454,None,523.7488900869366,None,1,[0.00954959803220845],[0.5175047634138537],524.2484681868755,None,[1 3 0 0 3 2 1 3],space,0,2.756456774565777,0.0025726121912157396,None,524.265118726943,None,1,527.0211113594869,None,None,527.5206774326286,None,,,,,,,,,,,,,,,,,,,,,,,,,,,,,,,,,,,,,,,,,,,,,,05_YY,5,26,F,2022-11-24_18h41.38.992,dynamic target,2022.1.3,120.09679270559678,
1,1,4,2,mix,0,62,62,62,,,,,,,None,528.5531287794211,None,527.5623143663788,528.5614609448194,528.0535580559181,None,2,"[0.00894408886142628, 0.725045276883975]","[0.24165524655381887, 1.233348417610614]",528.5531287794211,None,[3 0 2 1 2 3 1 1],space,0,3.1913393625527533,0.0026717130040196935,None,529.2858442667621,None,1,532.4747865403779,None,None,532.9743603106697,None,,,,,,,,,,,,,,,,,,,,,,,,,,,,,,,,,,,,,,,,,,,,,,05_YY,5,26,F,2022-11-24_18h41.38.992,dynamic target,2022.1.3,120.09679270559678,
0,8,4,2,mix,0,63,63,63,,,,,,,None,534.0068049224565,None,533.0326936466763,None,533.5072399718156,None,1,[0.008738510799958021],[0.5173351053881561],534.0068049224565,None,[0 0 0 0 3 0 1 0],space,0,3.7021524157662498,0.0026592051344778156,None,534.0234711775392,None,1,537.7286481847395,None,None,538.2282296521823,None,,,,,,,,,,,,,,,,,,,,,,,,,,,,,,,,,,,,,,,,,,,,,,05_YY,5,26,F,2022-11-24_18h41.38.992,dynamic target,2022.1.3,120.09679270559678,
0,7,4,2,mix,0,64,64,64,,,,,,,None,539.2523382499958,None,538.2615222333798,539.2606729811096,538.7527758650722,None,2,"[0.008657370005494158, 0.7593161979793877]","[0.12513834826222592, 1.266568036235185]",539.2523382499958,None,[0 3 1 1 0 0 1 3],space,0,2.7147273146520092,0.0026848623037949437,None,540.0183384610255,None,1,542.7326901508868,None,None,543.2322873333449,None,,,,,,,,,,,,,,,,,,,,,,,,,,,,,,,,,,,,,,,,,,,,,,05_YY,5,26,F,2022-11-24_18h41.38.992,dynamic target,2022.1.3,120.09679270559678,
0,6,3,2,mix,0,65,65,65,,,,,,,None,544.2647502258633,None,543.2905805800256,None,543.7651676359201,None,1,[0.008815482305180922],[0.5174816719627415],544.2647502258633,None,[2 0 2 0 2 1 3 2],space,0,3.267234549171917,0.0025790264835450216,None,544.2813702980438,None,1,547.5536015127473,None,None,548.0531820180456,None,,,,,,,,,,,,,,,,,,,,,,,,,,,,,,,,,,,,,,,,,,,,,,05_YY,5,26,F,2022-11-24_18h41.38.992,dynamic target,2022.1.3,120.09679270559678,
0,5,2,2,mix,0,66,66,66,,,,,,,None,549.077299916582,None,548.0864794099625,None,548.5777250237888,None,1,[0.008646144993690541],[0.517861398052446],549.077299916582,None,[2 0 1 2 3 2 3 3],space,0,2.9666213749214876,0.0020296423681429587,None,549.0939283273419,None,1,552.0664235222357,None,None,552.5659918403796,None,,,,,,,,,,,,,,,,,,,,,,,,,,,,,,,,,,,,,,,,,,,,,,05_YY,5,26,F,2022-11-24_18h41.38.992,dynamic target,2022.1.3,120.09679270559678,
0,1,1,0,mix,0,67,67,67,,,,,,,None,553.5984471961044,None,552.6159654295316,None,553.0905698040151,None,1,[0.008653521430460387],[0.516450895226626],553.5984471961044,None,[3 3 2 0 1 3 2 3],space,0,2.53370220173656,0.002890119649237022,None,553.6067615618422,None,1,556.1379537831017,None,None,556.63752659125,None,,,,,,,,,,,,,,,,,,,,,,,,,,,,,,,,,,,,,,,,,,,,,,05_YY,5,26,F,2022-11-24_18h41.38.992,dynamic target,2022.1.3,120.09679270559678,
1,2,1,1,mix,0,68,68,68,,,,,,,None,557.6616499419351,None,556.6708445089016,557.6699801830446,557.1620824255779,None,2,"[0.008645503565276158, 0.7588428232247679]","[0.3416104427242317, 1.2663252552811173]",557.6616499419351,None,[1 0 1 2 3 2 0 0],space,0,2.1770473576798395,0.0029593940034828847,None,558.4276706786995,None,1,560.6091377363391,None,None,561.1087102237723,None,,,,,,,,,,,,,,,,,,,,,,,,,,,,,,,,,,,,,,,,,,,,,,05_YY,5,26,F,2022-11-24_18h41.38.992,dynamic target,2022.1.3,120.09679270559678,
0,1,4,2,mix,0,69,69,69,,,,,,,None,562.1328464030421,None,561.1587287129696,None,561.6332679823881,None,1,[0.008680782171722967],[0.5179030909512221],562.1328464030421,None,[1 1 1 3 3 1 3 1],space,0,2.710170280852253,0.0022887797676958144,None,562.1494741723718,None,1,564.8638249000896,None,None,565.3634214411184,None,,,,,,,,,,,,,,,,,,,,,,,,,,,,,,,,,,,,,,,,,,,,,,05_YY,5,26,F,2022-11-24_18h41.38.992,dynamic target,2022.1.3,120.09679270559678,
1,8,2,2,mix,0,70,70,70,,,,,,,None,566.3958769572009,None,565.4133905402668,None,565.8962956501164,None,1,[0.008624336401226174],[0.516987450758279],566.3958769572009,None,[3 2 3 3 3 3 0 0],space,0,4.031197260326735,0.0029244361121527618,None,566.4125255729814,None,1,570.4423914789977,None,None,570.9419998864676,None,,,,,,,,,,,,,,,,,,,,,,,,,,,,,,,,,,,,,,,,,,,,,,05_YY,5,26,F,2022-11-24_18h41.38.992,dynamic target,2022.1.3,120.09679270559678,
0,7,4,2,mix,0,71,71,71,,,,,,,None,571.9744464225414,None,570.9920039435074,571.9911020940417,571.4748827547592,None,1,[0.15844071125502524],[0.6588116176944823],571.9744464225414,None,[1 1 3 2 3 2 3 3],space,0,2.2787437134311403,0.0026592051344778156,None,572.1326542949946,None,1,574.4140380630506,None,None,574.9136105504847,None,,,,,,,,,,,,,,,,,,,,,,,,,,,,,,,,,,,,,,,,,,,,,,05_YY,5,26,F,2022-11-24_18h41.38.992,dynamic target,2022.1.3,120.09679270559678,
1,6,3,2,mix,0,72,72,72,,,,,,,None,575.9460622179922,None,574.9552455599469,575.954389251956,575.4465040023579,None,2,"[0.008708363628102234, 0.7416499547634885]","[0.1084342488566108, 1.2500602141672061]",575.9460622179922,None,[3 2 0 1 3 0 2 3],space,0,3.2519839283486363,0.002683258730030502,None,576.6954256796826,None,1,579.9509848664402,None,None,580.4505409974288,None,,,,,,,,,,,,,,,,,,,,,,,,,,,,,,,,,,,,,,,,,,,,,,05_YY,5,26,F,2022-11-24_18h41.38.992,dynamic target,2022.1.3,120.09679270559678,
1,5,3,2,mix,0,73,73,73,,,,,,,None,581.4746832702758,None,580.4921901183343,581.4913427903521,580.9751022839055,None,2,"[0.008687517179168935, 1.0170020432733509]","[0.14170967182326422, 1.5246210997502203]",581.4746832702758,None,[1 0 1 0 2 0 1 3],space,0,4.3603630142924885,0.002772417389678594,None,582.4988135163248,None,1,586.8617521216074,None,None,587.3613316647622,None,,,,,,,,,,,,,,,,,,,,,,,,,,,,,,,,,,,,,,,,,,,,,,05_YY,5,26,F,2022-11-24_18h41.38.992,dynamic target,2022.1.3,120.09679270559678,
1,4,2,2,mix,0,74,74,74,,,,,,,None,588.3937730694024,None,587.4113485503867,588.4104393244852,587.8942126087668,None,2,"[0.008645182851068967, 0.700901560821876]","[0.34997083100734017, 1.208085728297192]",588.3937730694024,None,[3 1 0 2 0 2 3 0],space,0,3.0377610054001707,0.0029783161653540446,None,589.1015273391558,None,1,592.1405971128634,None,None,592.6401670345801,None,,,,,,,,,,,,,,,,,,,,,,,,,,,,,,,,,,,,,,,,,,,,,,05_YY,5,26,F,2022-11-24_18h41.38.992,dynamic target,2022.1.3,120.09679270559678,
0,3,1,2,mix,0,75,75,75,,,,,,,None,593.6726328135301,None,592.6984570741142,None,593.1730463750109,None,1,[0.008717022921700845],[0.5175224027170771],593.6726328135301,None,[1 3 3 2 3 1 0 0],space,0,3.233070105324259,0.0025835164879026706,None,593.6892718078716,None,1,596.9198341777219,None,None,597.4194287944626,None,,,,,,,,,,,,,,,,,,,,,,,,,,,,,,,,,,,,,,,,,,,,,,05_YY,5,26,F,2022-11-24_18h41.38.992,dynamic target,2022.1.3,120.09679270559678,
1,7,4,0,mix,0,76,76,76,,,,,,,None,598.451880141256,None,597.4693841028829,None,597.9523049277477,None,1,[0.009494435120359412],[0.5176686485756363],598.451880141256,None,[1 1 2 1 2 3 2 0],space,0,5.253178590246534,0.0024013505935727153,None,598.4685370956149,None,1,603.7223968156895,None,None,604.221962247401,None,,,,,,,,,,,,,,,,,,,,,,,,,,,,,,,,,,,,,,,,,,,,,,05_YY,5,26,F,2022-11-24_18h41.38.992,dynamic target,2022.1.3,120.09679270559678,
0,6,3,2,mix,0,77,77,77,,,,,,,None,605.2544145563379,None,604.2719643801538,605.2710654171196,604.7548370978284,None,1,[0.7752095308687785],[1.2833648221621843],605.2544145563379,None,[2 3 2 0 1 1 2 1],space,0,3.220939716879002,0.002699935888813343,None,606.0370871160285,None,1,609.2593323940673,None,None,609.7589058436449,None,,,,,,,,,,,,,,,,,,,,,,,,,,,,,,,,,,,,,,,,,,,,,,05_YY,5,26,F,2022-11-24_18h41.38.992,dynamic target,2022.1.3,120.09679270559678,
0,5,4,2,mix,0,78,78,78,,,,,,,None,610.7913626425861,None,609.8089060521097,None,610.2917832597886,None,1,[0.008606697098002769],[0.5172837910522503],610.7913626425861,None,[3 0 1 2 0 1 2 2],space,0,3.7778102735774155,0.002515524992304563,None,610.808011899795,None,1,614.588125477665,None,None,615.0876950786667,None,,,,,,,,,,,,,,,,,,,,,,,,,,,,,,,,,,,,,,,,,,,,,,05_YY,5,26,F,2022-11-24_18h41.38.992,dynamic target,2022.1.3,120.09679270559678,
1,6,3,1,mix,0,79,79,79,,,,,,,None,616.1201496326057,None,615.1293336159897,None,615.6205840405364,None,1,[0.008690403609762143],[0.5169037442465196],616.1201496326057,None,[0 3 1 2 2 2 2 3],space,0,2.6255202269876463,0.003206344247701054,None,616.1367995312439,None,1,618.7595666760853,None,None,619.2591449363815,None,,,,,,,,,,,,,,,,,,,,,,,,,,,,,,,,,,,,,,,,,,,,,,05_YY,5,26,F,2022-11-24_18h41.38.992,dynamic target,2022.1.3,120.09679270559678,
0,5,3,2,mix,0,80,80,80,,,,,,,None,620.2915991696063,None,619.3007706451208,None,619.7920262011003,None,1,[0.0086589735792586],[0.5180435639476855],620.2915991696063,None,[3 3 0 1 3 3 2 3],space,0,3.8447411663155435,0.0019177129724994302,None,620.308249709673,None,1,624.1549676928144,None,None,624.6545212580866,None,,,,,,,,,,,,,,,,,,,,,,,,,,,,,,,,,,,,,,,,,,,,,,05_YY,5,26,F,2022-11-24_18h41.38.992,dynamic target,2022.1.3,120.09679270559678,
0,4,4,2,mix,0,81,81,81,,,,,,,None,625.686995696331,None,624.6961748689964,625.6953230510098,625.1874278592595,None,4,"[0.00938154358027532, 0.7169860396143122, 0.7588569346680742, 0.8249886066141698]","[0.19172735923348228, 0.725244440653114, 0.767136502870926, 1.3331159957369891]",625.686995696331,None,[1 2 3 3 2 2 2 3],space,0,2.2252786647486573,0.0028657453403866384,None,626.5195974262015,None,1,628.7427352529812,None,None,629.2422891389685,None,,,,,,,,,,,,,,,,,,,,,,,,,,,,,,,,,,,,,,,,,,,,,,05_YY,5,26,F,2022-11-24_18h41.38.992,dynamic target,2022.1.3,120.09679270559678,
0,3,4,2,mix,0,82,82,82,,,,,,,None,630.2664304496711,None,629.2839289591502,None,629.7668491425857,None,1,[0.00864005141738744],[0.5174601840844844],630.2664304496711,None,[0 1 3 2 3 2 3 1],space,0,4.013418125569842,0.0024873021084204083,None,630.2830559739996,None,1,634.2963306721504,None,None,634.795894821005,None,,,,,,,,,,,,,,,,,,,,,,,,,,,,,,,,,,,,,,,,,,,,,,05_YY,5,26,F,2022-11-24_18h41.38.992,dynamic target,2022.1.3,120.09679270559678,
1,2,1,2,mix,0,83,83,83,,,,,,,None,635.8200229824088,None,634.8292050415057,635.8283503370876,635.3204397510362,None,2,"[0.16724079925916158, 0.5174184911847988]","[0.40891721297703043, 1.0245907922189872]",635.8200229824088,None,[2 1 0 0 2 2 0 2],space,0,4.048357415898863,0.0028583689036167925,None,636.3445764113767,None,1,640.3911246082071,None,None,640.8907092827956,None,,,,,,,,,,,,,,,,,,,,,,,,,,,,,,,,,,,,,,,,,,,,,,05_YY,5,26,F,2022-11-24_18h41.38.992,dynamic target,2022.1.3,120.09679270559678,
1,8,4,0,mix,0,84,84,84,,,,,,,None,641.9231388209955,None,640.9323337086762,641.9314523849462,641.4235790017892,None,2,"[0.009055376828655426, 0.39987851330806734]","[0.15009796227604966, 0.9089539347996833]",641.9231388209955,None,[1 1 0 2 2 3 2 2],space,0,4.221389679466483,0.0024119341742334655,None,642.3311291687687,None,1,646.5525405888384,None,None,647.0521114726996,None,,,,,,,,,,,,,,,,,,,,,,,,,,,,,,,,,,,,,,,,,,,,,,05_YY,5,26,F,2022-11-24_18h41.38.992,dynamic target,2022.1.3,120.09679270559678,
0,8,1,0,mix,0,85,85,85,,,,,,,None,648.0762418791055,None,647.1021129640221,None,647.5766660241688,None,1,[0.008637164984975243],[0.517725735775457],648.0762418791055,None,[3 2 1 3 0 2 3 2],space,0,1.8191398023809597,0.002103086012539279,None,648.0928988334654,None,1,649.9163464064095,None,None,650.4159227424177,None,,,,,,,,,,,,,,,,,,,,,,,,,,,,,,,,,,,,,,,,,,,,,,05_YY,5,26,F,2022-11-24_18h41.38.992,dynamic target,2022.1.3,120.09679270559678,
1,7,4,2,mix,0,86,86,86,,,,,,,None,651.4483622227708,None,650.4742333076874,None,650.9487931028407,None,1,[0.008638447843622998],[0.5172446638698602],651.4483622227708,None,[1 0 1 3 3 1 1 2],space,0,10.255265480171147,0.002836881024450122,None,651.4650255914221,None,1,661.7229433133734,None,None,662.2225161215217,None,,,,,,,,,,,,,,,,,,,,,,,,,,,,,,,,,,,,,,,,,,,,,,05_YY,5,26,F,2022-11-24_18h41.38.992,dynamic target,2022.1.3,120.09679270559678,
1,6,4,2,mix,0,87,87,87,,,,,,,None,663.2549668268848,None,662.2724874656715,None,662.7553912926633,None,1,[0.008634919982796418],[0.5172337595731733],663.2549668268848,None,[2 3 0 0 2 3 0 0],space,0,2.687513076975847,0.0027868495462826104,None,663.2716253848175,None,1,665.9609921242118,None,None,666.4605716673666,None,,,,,,,,,,,,,,,,,,,,,,,,,,,,,,,,,,,,,,,,,,,,,,05_YY,5,26,F,2022-11-24_18h41.38.992,dynamic target,2022.1.3,120.09679270559678,
1,5,2,2,mix,0,88,88,88,,,,,,,None,667.4930204484426,None,666.5108306925158,667.5179986639032,666.9934455556495,None,4,"[0.007708054778959195, 0.3989202180728171, 0.4406169650965239, 0.4822040277258566]","[0.04087347263612173, 0.43228351684047084, 0.4488593304049573, 0.9910029932289035]",667.4930204484426,None,[0 3 0 3 3 2 2 0],space,0,1.8471878980253678,0.002770493102616456,None,667.9842689487014,None,1,669.8326924921039,None,None,670.3322733181164,None,,,,,,,,,,,,,,,,,,,,,,,,,,,,,,,,,,,,,,,,,,,,,,05_YY,5,26,F,2022-11-24_18h41.38.992,dynamic target,2022.1.3,120.09679270559678,
0,4,4,2,mix,0,89,89,89,,,,,,,None,671.3647063841772,None,670.3822671122889,671.3813723185458,670.8651443199678,None,7,"[0.008613432105448737, 0.49143259044103615, 0.508171006309567, 0.5333349155253018, 0.6087910438527615, 0.6667717541522507, 0.6841044541806696]","[0.42488302736637706, 0.4997843194296365, 0.5252484175143763, 0.6004864599108259, 0.6506308295893177, 0.6750035358791138, 1.1915695676480027]",671.3647063841772,None,[0 1 3 2 0 0 3 2],space,0,2.462975330951849,0.002684220874471066,None,672.0558065860032,None,0,674.5286925716409,None,None,675.0282621726426,None,,,,,,,,,,,,,,,,,,,,,,,,,,,,,,,,,,,,,,,,,,,,,,05_YY,5,26,F,2022-11-24_18h41.38.992,dynamic target,2022.1.3,120.09679270559678,
0,8,4,0,mix,0,90,90,90,,,,,,,None,676.0607151230088,None,675.0698952578177,676.0690415155432,675.5611392680721,None,4,"[0.18295292839684407, 0.5077133465701991, 0.5250046744158681, 0.5502388201293797]","[0.4414444087742595, 0.5176115613767251, 0.5413351413089913, 1.0579598638505558]",676.0607151230088,None,[1 2 3 1 0 0 1 3],space,0,3.9165372995885264,0.0025908929246725165,None,676.6185786121205,None,1,680.5402306002143,None,None,681.0398046912212,None,,,,,,,,,,,,,,,,,,,,,,,,,,,,,,,,,,,,,,,,,,,,,,05_YY,5,26,F,2022-11-24_18h41.38.992,dynamic target,2022.1.3,120.09679270559678,
1,7,2,2,mix,0,91,91,91,,,,,,,None,682.0722650180232,None,681.0981508558116,682.0972618349306,681.572684031652,None,2,"[0.00862690211761219, 0.7004301103543185]","[0.3835047499433131, 1.2079965696366344]",682.0722650180232,None,[2 0 2 0 0 1 2 1],space,0,2.8268382357218798,0.0027419495027061203,None,682.7799929891789,None,1,685.610907760235,None,None,686.110466777656,None,,,,,,,,,,,,,,,,,,,,,,,,,,,,,,,,,,,,,,,,,,,,,,05_YY,5,26,F,2022-11-24_18h41.38.992,dynamic target,2022.1.3,120.09679270559678,
0,6,3,2,mix,0,92,92,92,,,,,,,None,687.1429482716212,None,686.1604913604297,687.1595853416748,686.6433836416954,None,2,"[0.008638447844532493, 0.7255616273960186]","[0.38323278396001115, 1.2333962040866027]",687.1429482716212,None,[0 1 3 1 1 1 1 1],space,0,2.7545703312680416,0.0026537529856796027,None,687.8756454782288,None,1,690.6316230371867,None,None,691.1311980903372,None,,,,,,,,,,,,,,,,,,,,,,,,,,,,,,,,,,,,,,,,,,,,,,05_YY,5,26,F,2022-11-24_18h41.38.992,dynamic target,2022.1.3,120.09679270559678,
0,5,2,2,mix,0,93,93,93,,,,,,,None,692.1636523235611,None,691.1728379105189,692.1719848096736,691.6640777514831,None,3,"[0.007605746820445347, 0.607803563588277, 0.7161900259679896]","[0.2409814251723219, 0.657621125085825, 1.2237305073667812]",692.1636523235611,None,[2 1 2 0 0 0 3 2],space,0,2.3984132362747914,0.0030196883499229443,None,692.8880369283625,None,1,695.2859751183196,None,None,695.7855703764906,None,,,,,,,,,,,,,,,,,,,,,,,,,,,,,,,,,,,,,,,,,,,,,,05_YY,5,26,F,2022-11-24_18h41.38.992,dynamic target,2022.1.3,120.09679270559678,
1,4,2,2,mix,0,94,94,94,,,,,,,None,696.8180207611395,None,695.8272583038624,None,696.3184461890605,None,1,[0.00859643423154921],[0.5176532542755012],696.8180207611395,None,[1 3 0 2 3 2 1 1],space,0,4.883101840035124,0.002329831237148028,None,696.834673225494,None,1,701.7221748811835,None,None,702.2217476893318,None,,,,,,,,,,,,,,,,,,,,,,,,,,,,,,,,,,,,,,,,,,,,,,05_YY,5,26,F,2022-11-24_18h41.38.992,dynamic target,2022.1.3,120.09679270559678,
0,3,2,2,mix,0,95,95,95,,,,,,,None,703.2458752093062,None,702.2717341070684,703.2708553490547,702.7463006372282,None,2,"[0.00864486213595228, 0.4499516843452511]","[0.2586903234305282, 0.9586608497584166]",703.2458752093062,None,[3 1 1 0 1 2 3 0],space,0,2.7345311207009217,0.0025886479215841973,None,703.7038380237309,None,1,706.4431162940018,None,None,706.9427198907522,None,,,,,,,,,,,,,,,,,,,,,,,,,,,,,,,,,,,,,,,,,,,,,,05_YY,5,26,F,2022-11-24_18h41.38.992,dynamic target,2022.1.3,120.09679270559678,
1,4,4,1,mix,0,96,96,96,,,,,,,None,707.9668477314417,None,706.9760336391137,707.9751738032619,707.467269631502,None,2,"[0.008577832784794737, 0.7504041805796078]","[0.45810906028418685, 1.2578189418536567]",707.9668477314417,None,[0 2 2 0 3 3 3 0],space,0,2.7695938861525065,0.0032438678572361823,None,708.7245199463641,None,1,711.4971605532583,None,None,711.9967234192543,None,,,,,,,,,,,,,,,,,,,,,,,,,,,,,,,,,,,,,,,,,,,,,,05_YY,5,26,F,2022-11-24_18h41.38.992,dynamic target,2022.1.3,120.09679270559678,
0,3,3,2,mix,0,97,97,97,,,,,,,None,713.0292151760868,None,712.0467419084507,None,712.5296264925655,None,1,[0.008720871496734617],[0.5177097000450885],713.0292151760868,None,[3 3 2 0 2 3 0 0],space,0,2.51130156954423,0.002441760633701051,None,713.0458477561369,None,1,715.560355120866,None,None,716.059942681886,None,,,,,,,,,,,,,,,,,,,,,,,,,,,,,,,,,,,,,,,,,,,,,,05_YY,5,26,F,2022-11-24_18h41.38.992,dynamic target,2022.1.3,120.09679270559678,
1,2,4,2,mix,0,98,98,98,,,,,,,None,717.0923988393979,None,716.1099072910301,None,716.5928258708927,None,1,[0.009670828152593458],[0.5172934124902895],717.0923988393979,None,[3 3 3 2 2 3 1 3],space,0,4.607592922084223,0.002755098800662381,None,717.1090413616002,None,1,721.7217868165135,None,None,722.2213509653673,None,,,,,,,,,,,,,,,,,,,,,,,,,,,,,,,,,,,,,,,,,,,,,,05_YY,5,26,F,2022-11-24_18h41.38.992,dynamic target,2022.1.3,120.09679270559678,
0,4,1,0,mix,0,99,99,99,,,,,,,None,723.2537997464433,None,722.262985333401,None,722.7542434550969,None,1,[0.008175015241249639],[0.5168267727412967],723.2537997464433,None,[3 1 3 3 0 2 1 3],space,0,3.181979306850735,0.0027653616680254345,None,723.2704711329598,None,1,726.4510735440281,None,None,726.9506636707654,None,,,,,,,,,,,,,,,,,,,,,,,,,,,,,,,,,,,,,,,,,,,,,,05_YY,5,26,F,2022-11-24_18h41.38.992,dynamic target,2022.1.3,120.09679270559678,
1,3,1,2,mix,0,100,100,100,,,,,,,None,727.9831243182816,None,726.9922999630862,None,727.4835385211918,None,1,[0.008654483573991456],[0.5175631334714126],727.9831243182816,None,[0 3 0 3 0 1 2 1],space,0,2.9323360216685614,0.002510072844415845,None,727.9997738962047,None,1,730.930599604816,None,None,731.4301778651122,None,,,,,,,,,,,,,,,,,,,,,,,,,,,,,,,,,,,,,,,,,,,,,,05_YY,5,26,F,2022-11-24_18h41.38.992,dynamic target,2022.1.3,120.09679270559678,
1,2,4,2,mix,0,101,101,101,,,,,,,None,732.4626160626067,None,731.4718443046058,732.4709607358736,731.9630530362538,None,2,"[0.008678537169544143, 0.7668831383334691]","[0.39161850869641057, 1.2744983462353048]",732.4626160626067,None,[3 0 0 0 2 2 1 2],space,0,2.1436128602699682,0.0032278321268677246,None,733.2369689647685,None,1,735.3851381494196,None,None,735.8847138439985,None,,,,,,,,,,,,,,,,,,,,,,,,,,,,,,,,,,,,,,,,,,,,,,05_YY,5,26,F,2022-11-24_18h41.38.992,dynamic target,2022.1.3,120.09679270559678,
0,1,4,2,mix,0,102,102,102,,,,,,,None,736.9171841129537,None,735.9347108453176,None,736.4175912601422,None,1,[0.008660897866320738],[0.5174088697476691],736.9171841129537,None,[2 2 0 0 1 2 3 0],space,0,4.654366901995672,0.002664336569068837,None,736.9338109201399,None,1,741.5881812820053,None,None,742.0877528072958,None,,,,,,,,,,,,,,,,,,,,,,,,,,,,,,,,,,,,,,,,,,,,,,05_YY,5,26,F,2022-11-24_18h41.38.992,dynamic target,2022.1.3,120.09679270559678,
0,8,4,2,mix,0,103,103,103,,,,,,,None,743.120207361234,None,742.1460893504473,None,742.6206363170168,None,1,[0.009564030189721962],[0.5176923814569818],743.120207361234,None,[3 1 2 3 0 0 0 0],space,0,2.6423157300550884,0.0024122548902596463,None,743.1368678434546,None,1,745.7846160901881,None,None,746.2841638825973,None,,,,,,,,,,,,,,,,,,,,,,,,,,,,,,,,,,,,,,,,,,,,,,05_YY,5,26,F,2022-11-24_18h41.38.992,dynamic target,2022.1.3,120.09679270559678,
0,7,4,2,mix,0,104,104,104,,,,,,,None,747.3166275769024,None,746.3424994636052,None,746.8087293383633,None,1,[0.008650955713164876],[0.5164810423993913],747.3166275769024,None,[2 0 3 0 2 1 2 0],space,0,2.6471011126532176,0.002846823177605984,None,747.3249659962348,None,1,749.9726735122131,None,None,750.4722719775298,None,,,,,,,,,,,,,,,,,,,,,,,,,,,,,,,,,,,,,,,,,,,,,,05_YY,5,26,F,2022-11-24_18h41.38.992,dynamic target,2022.1.3,120.09679270559678,
0,6,4,2,mix,0,105,105,105,,,,,,,None,751.5047034400168,None,750.5139092319951,751.5130567725782,751.0051599772551,None,2,"[0.009360055702018144, 0.033521731781547714]","[0.025502263122689328, 0.5336392736844573]",751.5047034400168,None,[2 0 3 3 1 0 2 2],space,0,2.9132611999139044,0.0026325858234486077,None,751.5380298566051,None,1,754.4522059872925,None,None,754.9517858511624,None,,,,,,,,,,,,,,,,,,,,,,,,,,,,,,,,,,,,,,,,,,,,,,05_YY,5,26,F,2022-11-24_18h41.38.992,dynamic target,2022.1.3,120.09679270559678,
0,5,3,2,mix,0,106,106,106,,,,,,,None,755.9842378393841,None,754.9934215020539,755.9925725704989,755.4846453072878,None,4,"[0.008600924234997365, 0.6672553917733239, 0.6917364995988464, 0.7253874793659634]","[0.5090571407581592, 0.6835637293588661, 0.7000112570822239, 1.2330616987546819]",755.9842378393841,None,[2 1 1 1 0 3 0 2],space,0,3.4465948325805584,0.002832391020092473,None,756.7169481952915,None,1,760.1640083167713,None,None,760.6635868977826,None,,,,,,,,,,,,,,,,,,,,,,,,,,,,,,,,,,,,,,,,,,,,,,05_YY,5,26,F,2022-11-24_18h41.38.992,dynamic target,2022.1.3,120.09679270559678,
0,4,4,2,mix,0,107,107,107,,,,,,,None,761.6877035134612,None,760.7052613551414,None,761.188141769966,None,1,[0.008611187102360418],[0.5173097689348651],761.6877035134612,None,[2 0 2 0 2 1 0 3],space,0,2.122331201328052,0.0027288002038403647,None,761.7043858042744,None,1,763.8275312319902,None,None,764.327128093734,None,,,,,,,,,,,,,,,,,,,,,,,,,,,,,,,,,,,,,,,,,,,,,,05_YY,5,26,F,2022-11-24_18h41.38.992,dynamic target,2022.1.3,120.09679270559678,
0,3,3,2,mix,0,108,108,108,,,,,,,None,765.3512522462049,None,764.3604315792281,None,764.8516582708935,None,1,[0.008632033552203211],[0.5088040969367285],765.3512522462049,None,[2 0 3 1 3 0 1 3],space,0,3.123528749657453,0.0026713922889030073,None,765.359586175533,None,1,768.4819173088708,None,None,768.9815170570462,None,,,,,,,,,,,,,,,,,,,,,,,,,,,,,,,,,,,,,,,,,,,,,,05_YY,5,26,F,2022-11-24_18h41.38.992,dynamic target,2022.1.3,120.09679270559678,
0,1,1,0,mix,0,109,109,109,,,,,,,None,770.0139453123875,None,769.0231276921986,770.0222755534978,769.5143694574508,None,2,"[0.008617280679573014, 0.7173606342703351]","[0.4082809152032496, 1.2248308791713498]",770.0139453123875,None,[3 3 0 3 2 1 3 1],space,0,2.144282833075522,0.002793584552819084,None,770.738337935054,None,1,772.8865007054119,None,None,773.3860683821265,None,,,,,,,,,,,,,,,,,,,,,,,,,,,,,,,,,,,,,,,,,,,,,,05_YY,5,26,F,2022-11-24_18h41.38.992,dynamic target,2022.1.3,120.09679270559678,
0,8,2,2,mix,0,110,110,110,,,,,,,None,774.4185274260699,None,773.4444094152832,None,773.9189461189844,None,1,[0.007665399737561529],[0.5165804639273119],774.4185274260699,None,[2 2 1 1 2 1 0 0],space,0,3.3108029866216384,0.002239710433059372,None,774.4351519882548,None,1,777.7490145242027,None,None,778.2485915016402,None,,,,,,,,,,,,,,,,,,,,,,,,,,,,,,,,,,,,,,,,,,,,,,05_YY,5,26,F,2022-11-24_18h41.38.992,dynamic target,2022.1.3,120.09679270559678,
0,7,4,2,mix,0,111,111,111,,,,,,,None,779.2810402827163,None,778.298549696492,None,778.7814673142111,None,1,[0.008667632872857212],[0.5175291377236135],779.2810402827163,None,[3 0 3 1 3 2 1 1],space,0,3.2169885129633258,0.002545992879277037,None,779.297693067786,None,1,782.5199476465486,None,None,783.0195214168405,None,,,,,,,,,,,,,,,,,,,,,,,,,,,,,,,,,,,,,,,,,,,,,,05_YY,5,26,F,2022-11-24_18h41.38.992,dynamic target,2022.1.3,120.09679270559678,
1,6,3,2,mix,0,112,112,112,,,,,,,None,784.0519740464915,None,783.0611609163079,784.0603020425997,783.5523969086962,None,2,"[0.14175842044187448, 0.8170368087357929]","[0.5081132776804225, 1.324593325864953]",784.0519740464915,None,[1 3 3 1 3 1 0 1],space,0,2.389765808422453,0.002944961845969374,None,784.8762686267037,None,1,787.2659057605797,None,None,787.7654731165801,None,,,,,,,,,,,,,,,,,,,,,,,,,,,,,,,,,,,,,,,,,,,,,,05_YY,5,26,F,2022-11-24_18h41.38.992,dynamic target,2022.1.3,120.09679270559678,
1,5,4,2,mix,0,113,113,113,,,,,,,None,788.7979404991029,None,787.8154422157277,None,788.2983713791727,None,1,[0.009470702239013917],[0.5174890483976924],788.7979404991029,None,[0 0 2 2 1 1 2 0],space,0,3.906668269810325,0.0026017972213594476,None,788.8145804555879,None,1,792.7195838279022,None,None,793.2191569567647,None,,,,,,,,,,,,,,,,,,,,,,,,,,,,,,,,,,,,,,,,,,,,,,05_YY,5,26,F,2022-11-24_18h41.38.992,dynamic target,2022.1.3,120.09679270559678,
1,6,2,1,mix,0,114,114,114,,,,,,,None,794.2516002856928,None,793.2607903626549,None,793.7520205821811,None,1,[0.008652559286929318],[0.5174412619226132],794.2516002856928,None,[2 1 2 2 2 3 1 3],space,0,2.46912759918996,0.002461644940012775,None,794.2682713514951,None,1,796.7411557335599,None,None,797.2407262967051,None,,,,,,,,,,,,,,,,,,,,,,,,,,,,,,,,,,,,,,,,,,,,,,05_YY,5,26,F,2022-11-24_18h41.38.992,dynamic target,2022.1.3,120.09679270559678,
0,4,4,0,mix,0,115,115,115,,,,,,,None,798.2731872649365,None,797.282358740451,798.2815059603208,797.773605957851,None,6,"[0.008655445717522525, 0.08350446130043565, 0.10847594175447739, 0.15012714730437438, 0.1673912144078713, 0.7502922511821453]","[0.04187859220382961, 0.10013800349406665, 0.14177702188862895, 0.15844263554299687, 0.18342277529063722, 1.2582689044420476]",798.2731872649365,None,[0 2 1 0 0 0 1 3],space,0,3.83475475499381,0.002656639417182305,None,799.0308774398763,None,1,802.869268389054,None,None,803.3688527429283,None,,,,,,,,,,,,,,,,,,,,,,,,,,,,,,,,,,,,,,,,,,,,,,05_YY,5,26,F,2022-11-24_18h41.38.992,dynamic target,2022.1.3,120.09679270559678,
0,5,4,1,mix,0,116,116,116,,,,,,,None,804.3929626235995,None,803.4021424376942,None,803.8933877308064,None,1,[0.00818944739876315],[0.5170615358310897],804.3929626235995,None,[2 3 0 3 0 3 3 1],space,0,3.4312502423781552,0.0023827491468182416,None,804.4095984107953,None,1,807.8400272350846,None,None,808.3396010053764,None,,,,,,,,,,,,,,,,,,,,,,,,,,,,,,,,,,,,,,,,,,,,,,05_YY,5,26,F,2022-11-24_18h41.38.992,dynamic target,2022.1.3,120.09679270559678,
0,4,4,2,mix,0,117,117,117,,,,,,,None,809.3720517107404,None,808.3895572759402,None,808.872480025093,None,1,[0.009485775825851306],[0.5176878914517147],809.3720517107404,None,[3 2 0 3 3 2 1 3],space,0,2.6757890339331425,0.002223353988483723,None,809.388709947958,None,1,812.0697512569614,None,None,812.5693445908435,None,,,,,,,,,,,,,,,,,,,,,,,,,,,,,,,,,,,,,,,,,,,,,,05_YY,5,26,F,2022-11-24_18h41.38.992,dynamic target,2022.1.3,120.09679270559678,
0,3,2,2,mix,0,118,118,118,,,,,,,None,813.6017750911878,None,812.6109427181273,None,813.1022018019676,None,1,[0.008632674980617594],[0.5175066877009158],813.6017750911878,None,[2 3 1 2 2 0 0 1],space,0,2.045753213318676,0.0025402200171811273,None,813.6184410255555,None,1,815.666689009784,None,None,816.1662592522159,None,,,,,,,,,,,,,,,,,,,,,,,,,,,,,,,,,,,,,,,,,,,,,,05_YY,5,26,F,2022-11-24_18h41.38.992,dynamic target,2022.1.3,120.09679270559678,
0,2,2,2,mix,0,119,119,119,,,,,,,None,817.1987096368648,None,816.207895865251,817.2070161450938,816.6991344233566,None,2,"[0.008722795783796755, 0.9834065471313806]","[0.3998769097352124, 1.4915874955941035]",817.1987096368648,None,[2 3 0 2 0 1 2 3],space,0,2.067134614500901,0.002713085188588593,None,818.1895121834668,None,1,820.254439572077,None,space,820.7623370088295,None,35.89763277728798,,,,,,,,,,,,,,,,,,,,,,,,,,,,,,,,,,,,,,,,,,,,,05_YY,5,26,F,2022-11-24_18h41.38.992,dynamic target,2022.1.3,120.09679270559678,
1,1,3,2,mix,0,120,120,120,,,,,,,None,857.7058351135665,None,856.7150194176656,None,857.2062611829178,None,1,[0.00953869373552152],[0.5174707676651451],857.7058351135665,None,[1 0 1 0 2 2 3 1],space,0,2.8356158737033184,0.0025613871812311118,None,857.7224901436384,None,1,860.5617406079537,None,None,861.0613143782455,None,,,,,,,,,,,,,,,,,,,,,,,,,,,,,,,,,,,,,,,,,,,,,,05_YY,5,26,F,2022-11-24_18h41.38.992,dynamic target,2022.1.3,120.09679270559678,
0,8,4,2,mix,0,121,121,121,,,,,,,None,862.0937605936042,None,861.1113107381343,None,861.5941879458132,None,1,[0.008643258563097334],[0.5168822563682625],862.0937605936042,None,[2 0 3 1 1 3 2 0],space,0,2.4007005728271906,0.0031726692150186864,None,862.1104290936901,None,1,864.5083756222266,None,None,865.0079461853727,None,,,,,,,,,,,,,,,,,,,,,,,,,,,,,,,,,,,,,,,,,,,,,,05_YY,5,26,F,2022-11-24_18h41.38.992,dynamic target,2022.1.3,120.09679270559678,
1,7,2,2,mix,0,122,122,122,,,,,,,None,866.0403962493074,None,865.0495840812664,None,865.540822639372,None,1,[0.008011771508790844],[0.5169566621561899],866.0403962493074,None,[1 3 1 1 0 0 3 3],space,0,3.0128036363894353,0.0025007721205838607,None,866.0570310743587,None,1,869.0711543833513,None,None,869.5707252672116,None,,,,,,,,,,,,,,,,,,,,,,,,,,,,,,,,,,,,,,,,,,,,,,05_YY,5,26,F,2022-11-24_18h41.38.992,dynamic target,2022.1.3,120.09679270559678,
1,6,1,2,mix,0,123,123,123,,,,,,,None,870.6031926497344,None,869.6123570695281,None,870.1035815161913,None,1,[0.009704823900392512],[0.517551908459609],870.6031926497344,None,[1 2 2 3 1 2 1 3],space,0,3.313966515469474,0.0025286742911703186,None,870.6198342097932,None,1,873.9336643535662,None,None,874.433219201697,None,,,,,,,,,,,,,,,,,,,,,,,,,,,,,,,,,,,,,,,,,,,,,,05_YY,5,26,F,2022-11-24_18h41.38.992,dynamic target,2022.1.3,120.09679270559678,
1,5,1,2,mix,0,124,124,124,,,,,,,None,875.4656913949384,None,874.4748724918918,None,874.9661177850039,None,1,[0.00866859501638828],[0.5175442113104509],875.4656913949384,None,[0 1 3 3 1 2 0 2],space,0,3.7633797199951005,0.0024879435368347913,None,875.4823521978733,None,1,879.2457998413747,None,None,879.745378422386,None,,,,,,,,,,,,,,,,,,,,,,,,,,,,,,,,,,,,,,,,,,,,,,05_YY,5,26,F,2022-11-24_18h41.38.992,dynamic target,2022.1.3,120.09679270559678,
0,6,3,1,mix,0,125,125,125,,,,,,,None,880.7778300898935,None,879.7953257129411,None,880.278271553545,None,1,[0.009234335577275488],[0.5177456200808592],880.7778300898935,None,[3 3 3 1 2 2 1 2],space,0,2.2104693472192594,0.0023384905316561344,None,880.7944819128188,None,0,883.0175854231366,None,None,883.5171518169925,None,,,,,,,,,,,,,,,,,,,,,,,,,,,,,,,,,,,,,,,,,,,,,,05_YY,5,26,F,2022-11-24_18h41.38.992,dynamic target,2022.1.3,120.09679270559678,
0,5,2,2,mix,0,126,126,126,,,,,,,None,884.5496038052152,None,883.5588237086349,884.5579420641898,884.050043986008,None,2,"[0.009311307082498388, 0.15016306734014506]","[0.05052922720369679, 0.6508069019073446]",884.5496038052152,None,[2 2 3 3 3 2 0 3],space,0,3.4740415883443347,0.0024763978108239826,None,884.6994730979786,None,1,888.1798545046131,None,None,888.6794215398984,None,,,,,,,,,,,,,,,,,,,,,,,,,,,,,,,,,,,,,,,,,,,,,,05_YY,5,26,F,2022-11-24_18h41.38.992,dynamic target,2022.1.3,120.09679270559678,
0,4,3,2,mix,0,127,127,127,,,,,,,None,889.7118719245473,None,888.721059435793,None,889.2123098603388,None,1,[0.008685592890287808],[0.5176413878343737],889.7118719245473,None,[2 3 3 2 1 3 3 2],space,0,2.812359574949369,0.0024221970425060135,None,889.7285385003452,None,1,892.5427982413294,None,None,893.0423707287634,None,,,,,,,,,,,,,,,,,,,,,,,,,,,,,,,,,,,,,,,,,,,,,,05_YY,5,26,F,2022-11-24_18h41.38.992,dynamic target,2022.1.3,120.09679270559678,
0,5,1,1,mix,0,128,128,128,,,,,,,None,894.074826244846,None,893.0923840865262,None,893.5752516727671,None,1,[0.009513357282230572],[0.5174855205368658],894.074826244846,None,[3 1 0 1 3 3 0 1],space,0,2.4498997965702074,0.0026117393736058148,None,894.0914767849135,None,1,896.5393877622364,None,None,897.0389685882499,None,,,,,,,,,,,,,,,,,,,,,,,,,,,,,,,,,,,,,,,,,,,,,,05_YY,5,26,F,2022-11-24_18h41.38.992,dynamic target,2022.1.3,120.09679270559678,
0,7,1,0,mix,0,129,129,129,,,,,,,None,898.0714160864673,None,897.0889777767234,None,897.5718415143892,None,1,[0.008566287058783928],[0.5171609573590104],898.0714160864673,None,[3 0 2 0 0 2 1 0],space,0,2.5012208681282573,0.002716292334298487,None,898.0880666265348,None,1,900.5859401283569,None,None,901.0855148607923,None,,,,,,,,,,,,,,,,,,,,,,,,,,,,,,,,,,,,,,,,,,,,,,05_YY,5,26,F,2022-11-24_18h41.38.992,dynamic target,2022.1.3,120.09679270559678,
1,6,2,2,mix,0,130,130,130,,,,,,,None,902.1179716597335,None,901.1438318403534,None,901.6183897112196,None,1,[0.008606697098002769],[0.5175172712833955],902.1179716597335,None,[3 0 1 3 0 2 1 0],space,0,4.2140568607737805,0.0025200149957527174,None,902.1346234826597,None,1,906.347689267318,None,None,906.8472678483292,None,,,,,,,,,,,,,,,,,,,,,,,,,,,,,,,,,,,,,,,,,,,,,,05_YY,5,26,F,2022-11-24_18h41.38.992,dynamic target,2022.1.3,120.09679270559678,
1,5,1,2,mix,0,131,131,131,,,,,,,None,907.8797259301291,None,906.9055857900339,907.9047025420159,907.3801340394621,None,3,"[0.008630429979348264, 0.2842333173084626, 0.33407204597006057]","[0.19222222186635918, 0.3249435462121255, 0.8421324057417223]",907.8797259301291,None,[1 1 0 2 1 2 3 3],space,0,3.8710202002075675,0.0025097521292991587,None,908.2210785183115,None,1,912.0927962047917,None,None,912.5923645229357,None,,,,,,,,,,,,,,,,,,,,,,,,,,,,,,,,,,,,,,,,,,,,,,05_YY,5,26,F,2022-11-24_18h41.38.992,dynamic target,2022.1.3,120.09679270559678,
1,4,2,2,mix,0,132,132,132,,,,,,,None,913.624800475428,None,912.6423214349288,913.6414792383803,913.1252499569446,None,6,"[0.009639718836297106, 0.3012664698981098, 0.7833287417697647, 0.8417908446890578, 0.8669666203450106, 0.9168489661924468]","[0.13373478249286563, 0.7751258243570192, 0.7922157434313704, 0.8503975417870606, 0.9085225736580469, 1.4244625705214276]",913.624800475428,None,[1 0 1 1 2 1 1 3],space,0,4.48712514059207,0.002871518202482548,None,914.5490361403672,None,1,919.0368690300984,None,None,919.5364559496891,None,,,,,,,,,,,,,,,,,,,,,,,,,,,,,,,,,,,,,,,,,,,,,,05_YY,5,26,F,2022-11-24_18h41.38.992,dynamic target,2022.1.3,120.09679270559678,
1,5,4,1,mix,0,133,133,133,,,,,,,None,920.5688967128999,None,919.5864481402887,None,920.0693250272534,None,1,[0.009576217344147153],[0.5174136804662339],920.5688967128999,None,[0 2 3 2 2 2 1 0],space,0,3.9057622510563306,0.0025357300128234783,None,920.5855549501175,None,1,924.4905406831285,None,None,924.9901301684365,None,,,,,,,,,,,,,,,,,,,,,,,,,,,,,,,,,,,,,,,,,,,,,,05_YY,5,26,F,2022-11-24_18h41.38.992,dynamic target,2022.1.3,120.09679270559678,
1,4,4,2,mix,0,134,134,134,,,,,,,None,926.0225824773734,None,925.0484481101412,None,925.5230098295824,None,1,[0.008071745139204722],[0.5172350424318211],926.0225824773734,None,[0 1 0 0 1 0 3 0],space,0,3.6511668116818328,0.001660820575125399,None,926.0392413560203,None,1,929.6944494244299,None,None,930.1940244775803,None,,,,,,,,,,,,,,,,,,,,,,,,,,,,,,,,,,,,,,,,,,,,,,05_YY,5,26,F,2022-11-24_18h41.38.992,dynamic target,2022.1.3,120.09679270559678,
0,5,2,1,mix,0,135,135,135,,,,,,,None,931.2181500732677,None,930.2356713534837,None,930.7185796704789,None,1,[0.00865191785760544],[0.5174518455041834],931.2181500732677,None,[3 2 1 0 1 1 1 2],space,0,3.128204768575415,0.0024180277532650507,None,931.2347816911733,None,1,934.3654741749378,None,None,934.8650376823623,None,,,,,,,,,,,,,,,,,,,,,,,,,,,,,,,,,,,,,,,,,,,,,,05_YY,5,26,F,2022-11-24_18h41.38.992,dynamic target,2022.1.3,120.09679270559678,
0,6,3,1,mix,0,136,136,136,,,,,,,None,935.8974931984449,None,934.915056812989,None,935.3979420385331,None,1,[0.01652898923293833],[0.5170336336614128],935.8974931984449,None,[2 1 2 3 2 3 2 0],space,0,2.99261144495631,0.0025790264844545163,None,935.9141591328134,None,1,938.9115866809798,None,None,939.4111639791324,None,,,,,,,,,,,,,,,,,,,,,,,,,,,,,,,,,,,,,,,,,,,,,,05_YY,5,26,F,2022-11-24_18h41.38.992,dynamic target,2022.1.3,120.09679270559678,
0,5,2,2,mix,0,137,137,137,,,,,,,None,940.43530144126,None,939.4527986678804,940.4519407563157,939.9357130784529,None,1,[0.45820110537533765],[0.9585524482235996],940.43530144126,None,[1 0 2 2 1 2 1 2],space,0,2.781796435384422,0.002618153665025602,None,940.8932466163806,None,1,943.6741860343545,None,None,944.173751466067,None,,,,,,,,,,,,,,,,,,,,,,,,,,,,,,,,,,,,,,,,,,,,,,05_YY,5,26,F,2022-11-24_18h41.38.992,dynamic target,2022.1.3,120.09679270559678,
1,4,3,2,mix,0,138,138,138,,,,,,,None,945.206232478961,None,944.215395776253,None,944.7066266372085,None,1,[0.0086532007153437],[0.5089442492180751],945.206232478961,None,[3 0 2 3 0 1 0 0],space,0,5.867755646258956,0.0026495836973481346,None,945.2145471654121,None,1,951.0845336344628,None,None,951.5841266476316,None,,,,,,,,,,,,,,,,,,,,,,,,,,,,,,,,,,,,,,,,,,,,,,05_YY,5,26,F,2022-11-24_18h41.38.992,dynamic target,2022.1.3,120.09679270559678,
0,3,3,2,mix,0,139,139,139,,,,,,,None,952.6165751079925,None,951.6257494699394,None,952.1169941216222,None,1,[0.008857495918164204],[0.5178607566231221],952.6165751079925,None,[1 0 2 0 3 3 2 3],space,0,2.6725254421280624,0.002232333997199021,None,952.6332163473371,None,1,955.3059437716747,None,None,955.8055130519622,None,,,,,,,,,,,,,,,,,,,,,,,,,,,,,,,,,,,,,,,,,,,,,,05_YY,5,26,F,2022-11-24_18h41.38.992,dynamic target,2022.1.3,120.09679270559678,
1,4,4,1,mix,0,140,140,140,,,,,,,None,956.8379583051774,None,955.8555222404357,None,956.3383968823973,None,1,[0.008610866388153227],[0.5173235596630548],956.8379583051774,None,[3 1 0 2 1 3 0 0],space,0,3.971583471266058,0.0027166130475961836,None,956.8546232774024,None,1,960.8262371485653,None,None,961.3258170124343,None,,,,,,,,,,,,,,,,,,,,,,,,,,,,,,,,,,,,,,,,,,,,,,05_YY,5,26,F,2022-11-24_18h41.38.992,dynamic target,2022.1.3,120.09679270559678,
1,3,1,2,mix,0,141,141,141,,,,,,,None,962.3582606620766,None,961.3758197866164,None,961.8586934664345,None,1,[0.008745887235818373],[0.5172251002795747],962.3582606620766,None,[1 2 2 0 3 2 3 2],space,0,2.9786590768471797,0.0026964080288962577,None,962.3748958078431,None,1,965.355707132404,None,None,965.8552690362565,None,,,,,,,,,,,,,,,,,,,,,,,,,,,,,,,,,,,,,,,,,,,,,,05_YY,5,26,F,2022-11-24_18h41.38.992,dynamic target,2022.1.3,120.09679270559678,
0,2,2,2,mix,0,142,142,142,,,,,,,None,966.887733853062,None,965.9136119937002,None,966.3881599224133,None,1,[0.008541592033907364],[0.517377439716256],966.887733853062,None,[3 0 3 3 0 1 1 2],space,0,5.265657916181226,0.0026104565140485647,None,966.9043840724153,None,1,972.1748731653925,None,None,972.6744623299853,None,,,,,,,,,,,,,,,,,,,,,,,,,,,,,,,,,,,,,,,,,,,,,,05_YY,5,26,F,2022-11-24_18h41.38.992,dynamic target,2022.1.3,120.09679270559678,
1,1,2,2,mix,0,143,143,143,,,,,,,None,973.6985882463878,None,972.7160934908725,973.7152484078924,973.1990165607403,None,3,"[0.20797764747476322, 0.34128299311396404, 0.36619065136164863]","[0.24128546261636075, 0.3495404320092348, 0.866395106921118]",973.6985882463878,None,[0 2 3 1 0 3 0 1],space,0,4.984512439074933,0.002868631770979846,None,974.0649257850373,None,1,979.0523601868745,None,None,979.5519320328783,None,,,,,,,,,,,,,,,,,,,,,,,,,,,,,,,,,,,,,,,,,,,,,,05_YY,5,26,F,2022-11-24_18h41.38.992,dynamic target,2022.1.3,120.09679270559678,
1,8,4,2,mix,0,144,144,144,,,,,,,None,980.5843894732488,None,979.6018886241573,980.6010255811589,980.0764785664833,None,2,"[0.008657049291286967, 1.008587774937041]","[0.2586906441456449, 1.516462761666844]",980.5843894732488,None,[1 3 2 1 1 3 2 1],space,0,7.216682230517108,0.0026075700834553572,None,981.5918473706379,None,1,988.8107068646077,None,None,989.310281597044,None,,,,,,,,,,,,,,,,,,,,,,,,,,,,,,,,,,,,,,,,,,,,,,05_YY,5,26,F,2022-11-24_18h41.38.992,dynamic target,2022.1.3,120.09679270559678,
0,7,2,2,mix,0,145,145,145,,,,,,,None,990.3427273313307,None,989.3602827676523,None,989.8348313377937,None,1,[0.008673085021655424],[0.5164614788091058],990.3427273313307,None,[1 1 1 3 2 2 0 1],space,0,2.1373897141047564,0.0026438108334332355,None,990.3510577327979,None,1,992.4909040527746,None,None,992.9904707673456,None,,,,,,,,,,,,,,,,,,,,,,,,,,,,,,,,,,,,,,,,,,,,,,05_YY,5,26,F,2022-11-24_18h41.38.992,dynamic target,2022.1.3,120.09679270559678,
1,3,4,0,mix,0,146,146,146,,,,,,,None,994.0146018151809,None,993.0237902885692,None,993.5150249980998,None,1,[0.008753905101002601],[0.5176231071018265],994.0146018151809,None,[1 2 2 3 1 0 2 0],space,0,4.344910022554359,0.0023657512729187147,None,994.0312388852344,None,1,998.3775506833308,None,None,998.8771173979019,None,,,,,,,,,,,,,,,,,,,,,,,,,,,,,,,,,,,,,,,,,,,,,,05_YY,5,26,F,2022-11-24_18h41.38.992,dynamic target,2022.1.3,120.09679270559678,
1,2,2,2,mix,0,147,147,147,,,,,,,None,999.9012511718108,None,998.9104253734004,None,999.401675477232,None,1,[0.008650634998957685],[0.5087903062085388],999.9012511718108,None,[1 3 0 0 3 3 3 1],space,0,3.5864546225702725,0.002729762346461939,None,999.9095501432475,None,1,1003.4981589378194,None,None,1003.9977487438416,None,,,,,,,,,,,,,,,,,,,,,,,,,,,,,,,,,,,,,,,,,,,,,,05_YY,5,26,F,2022-11-24_18h41.38.992,dynamic target,2022.1.3,120.09679270559678,
1,1,1,2,mix,0,148,148,148,,,,,,,None,1005.0302061842112,None,1004.0477451037304,None,1004.5306210285516,None,1,[0.008592264941398753],[0.5173322189575629],1005.0302061842112,None,[3 0 0 3 2 0 1 2],space,0,4.384460226737247,0.0025382957282999996,None,1005.0468573657081,None,1,1009.4347504535708,None,None,1009.9343848389233,None,,,,,,,,,,,,,,,,,,,,,,,,,,,,,,,,,,,,,,,,,,,,,,05_YY,5,26,F,2022-11-24_18h41.38.992,dynamic target,2022.1.3,120.09679270559678,
0,8,1,2,mix,0,149,149,149,,,,,,,None,1010.9668159806961,None,1009.9759929083593,None,1010.4672382014714,None,1,[0.008682065030370723],[0.5176388221179877],1010.9668159806961,None,[0 3 3 0 0 3 2 3],space,0,3.5836146947567613,0.002491471397661371,None,1010.9834658793343,None,1,1014.57205126174,None,None,1015.0716587070654,None,,,,,,,,,,,,,,,,,,,,,,,,,,,,,,,,,,,,,,,,,,,,,,05_YY,5,26,F,2022-11-24_18h41.38.992,dynamic target,2022.1.3,120.09679270559678,
0,7,3,2,mix,0,150,150,150,,,,,,,None,1016.1040962631296,None,1015.1132943579569,1016.1124204106627,1015.6045380474961,None,2,"[0.008650634998957685, 0.7256498239112261]","[0.458738302335405, 1.2334250684007202]",1016.1040962631296,None,[3 1 0 2 2 0 3 0],space,0,3.97060272600811,0.0026797308682944276,None,1016.8367867347315,None,1,1020.8083964366042,None,None,1021.3079891290579,None,,,,,,,,,,,,,,,,,,,,,,,,,,,,,,,,,,,,,,,,,,,,,,05_YY,5,26,F,2022-11-24_18h41.38.992,dynamic target,2022.1.3,120.09679270559678,
1,6,4,2,mix,0,151,151,151,,,,,,,None,1022.3404500972892,None,1021.3496231763766,None,1021.840871035206,None,1,[0.008588095651248295],[0.5169460785746196],1022.3404500972892,None,[1 3 1 0 0 2 2 3],space,0,2.835116200350967,0.0031101298663998023,None,1022.3571019202145,None,1,1025.1963283309342,None,None,1025.6959126848085,None,,,,,,,,,,,,,,,,,,,,,,,,,,,,,,,,,,,,,,,,,,,,,,05_YY,5,26,F,2022-11-24_18h41.38.992,dynamic target,2022.1.3,120.09679270559678,
1,5,3,2,mix,0,152,152,152,,,,,,,None,1026.7283665973173,None,1025.7458917261083,1026.7450485674162,1026.2287977981023,None,1,[1.1005177295846806],[1.6078199200328527],1026.7283665973173,None,[1 3 0 3 2 2 0 1],space,0,3.0510613607202686,0.0026983323168678908,None,1027.835770390153,None,1,1030.8914846103498,None,None,1031.391059022071,None,,,,,,,,,,,,,,,,,,,,,,,,,,,,,,,,,,,,,,,,,,,,,,05_YY,5,26,F,2022-11-24_18h41.38.992,dynamic target,2022.1.3,120.09679270559678,
0,4,1,2,mix,0,153,153,153,,,,,,,None,1032.4234882395558,None,1031.449385302356,None,1031.9239412489333,None,1,[0.008698100759829686],[0.517089117287469],1032.4234882395558,None,[2 1 1 1 2 0 0 2],space,0,2.3503833379772914,0.002975750448058534,None,1032.4401442317721,None,1,1034.7881670422776,None,None,1035.2877462647173,None,,,,,,,,,,,,,,,,,,,,,,,,,,,,,,,,,,,,,,,,,,,,,,05_YY,5,26,F,2022-11-24_18h41.38.992,dynamic target,2022.1.3,120.09679270559678,
1,3,4,2,mix,0,154,154,154,,,,,,,None,1036.320186707214,None,1035.3293629934478,None,1035.8206118144208,None,1,[0.009149025492661167],[0.5177635800991993],1036.320186707214,None,[0 2 1 0 0 2 0 0],space,0,3.4294725213321726,0.002322775516404363,None,1036.3368205701217,None,1,1039.7672526015567,None,None,1040.266842407579,None,,,,,,,,,,,,,,,,,,,,,,,,,,,,,,,,,,,,,,,,,,,,,,05_YY,5,26,F,2022-11-24_18h41.38.992,dynamic target,2022.1.3,120.09679270559678,
1,2,4,2,mix,0,155,155,155,,,,,,,None,1041.2909519675359,None,1040.3084549670193,None,1040.7913783576014,None,1,[0.00865288000113651],[0.5172125924100328],1041.2909519675359,None,[1 2 3 3 2 2 1 0],space,0,4.011128544015264,0.0027002566030205344,None,1041.3076047526056,None,1,1045.320846417153,None,None,1045.8204067174318,None,,,,,,,,,,,,,,,,,,,,,,,,,,,,,,,,,,,,,,,,,,,,,,05_YY,5,26,F,2022-11-24_18h41.38.992,dynamic target,2022.1.3,120.09679270559678,
1,1,3,2,mix,0,156,156,156,,,,,,,None,1046.8528850042512,None,1045.8620414061797,1046.8612036996356,1046.35329632073,None,2,"[0.008633316409941472, 0.7335515903114356]","[0.5179521602849491, 1.2412915561935733]",1046.8528850042512,None,[1 3 1 0 1 2 1 0],space,0,3.388725730963415,0.0031636892063033883,None,1047.5939137348278,None,1,1050.9826753178368,None,None,1051.4822407495492,None,,,,,,,,,,,,,,,,,,,,,,,,,,,,,,,,,,,,,,,,,,,,,,05_YY,5,26,F,2022-11-24_18h41.38.992,dynamic target,2022.1.3,120.09679270559678,
1,8,1,2,mix,0,157,157,157,,,,,,,None,1052.5147103770742,None,1051.523890511883,None,1052.0151534442984,None,1,[0.008618884253337455],[0.517555436321345],1052.5147103770742,None,[0 2 1 0 3 1 1 0],space,0,2.7704126705348244,0.002390446297795279,None,1052.5313631621439,None,1,1055.3039935061706,None,None,1055.8035688800362,None,,,,,,,,,,,,,,,,,,,,,,,,,,,,,,,,,,,,,,,,,,,,,,05_YY,5,26,F,2022-11-24_18h41.38.992,dynamic target,2022.1.3,120.09679270559678,
0,7,1,2,mix,0,158,158,158,,,,,,,None,1056.8360045118134,None,1055.8452029273549,None,1056.3364584833344,None,1,[0.00897712246478477],[0.517248512444894],1056.8360045118134,None,[3 1 1 0 1 1 3 3],space,0,2.3843787652285755,0.0021399681909315404,None,1056.8526601833146,None,1,1059.2423088629166,None,None,1059.7418906510736,None,,,,,,,,,,,,,,,,,,,,,,,,,,,,,,,,,,,,,,,,,,,,,,05_YY,5,26,F,2022-11-24_18h41.38.992,dynamic target,2022.1.3,120.09679270559678,
1,6,4,2,mix,0,159,159,159,,,,,,,None,1060.7743378285768,None,1059.8002166106435,None,1060.2747587664935,None,1,[0.00855153418615373],[0.517438375490201],1060.7743378285768,None,[0 0 2 3 1 1 0 1],space,0,2.9581814494176797,0.002573253621449112,None,1060.790991255075,None,1,1063.746803197012,None,None,1064.2463548379963,None,,,,,,,,,,,,,,,,,,,,,,,,,,,,,,,,,,,,,,,,,,,,,,05_YY,5,26,F,2022-11-24_18h41.38.992,dynamic target,2022.1.3,120.09679270559678,
1,5,4,2,mix,0,160,160,160,,,,,,,None,1065.278823824092,None,1064.3047058133052,None,1064.7792486105845,None,1,[0.00865672857617028],[0.5170820615667253],1065.278823824092,None,[3 0 2 3 3 0 3 0],space,0,4.46952688887086,0.002832711735209159,None,1065.2954833441681,None,1,1069.7666685802642,None,None,1070.2662368984081,None,,,,,,,,,,,,,,,,,,,,,,,,,,,,,,,,,,,,,,,,,,,,,,05_YY,5,26,F,2022-11-24_18h41.38.992,dynamic target,2022.1.3,120.09679270559678,
0,4,3,2,mix,0,161,161,161,,,,,,,None,1071.2986747751875,None,1070.307871266441,1071.3070325977533,1070.7991149559803,None,3,"[0.008627864262052753, 0.07516652304002491, 0.4914752454833433]","[0.06685360051869793, 0.3249461119285115, 0.9923695581546781]",1071.2986747751875,None,[0 0 1 1 0 1 2 2],space,0,3.398060450211233,0.0021765296569355996,None,1071.7899431597507,None,1,1075.187040436018,None,None,1075.686614847739,None,,,,,,,,,,,,,,,,,,,,,,,,,,,,,,,,,,,,,,,,,,,,,,05_YY,5,26,F,2022-11-24_18h41.38.992,dynamic target,2022.1.3,120.09679270559678,
1,3,3,2,mix,0,162,162,162,,,,,,,None,1076.7107481405774,None,1075.728245687912,1076.7273993220733,1076.2111693992092,None,2,"[0.008536139886018645, 0.7165886742204748]","[0.3415119833407516, 1.2252943117737232]",1076.7107481405774,None,[1 2 0 0 3 2 2 2],space,0,3.65725172985276,0.002188396096244105,None,1077.4351080503538,None,1,1081.0903603773786,None,None,1081.5899023969248,None,,,,,,,,,,,,,,,,,,,,,,,,,,,,,,,,,,,,,,,,,,,,,,05_YY,5,26,F,2022-11-24_18h41.38.992,dynamic target,2022.1.3,120.09679270559678,
0,2,1,2,mix,0,163,163,163,,,,,,,None,1082.614041141911,None,1081.6399372425667,1082.639018074513,1082.114464645545,None,5,"[0.00866474644135451, 0.5173601211272398, 0.5503334309369166, 0.6086053500966955, 0.6920212941668069]","[0.4914143097075794, 0.5260049832631921, 0.5924243362087509, 0.6173390501771792, 1.199637143497057]",1082.614041141911,None,[2 1 0 3 3 3 2 1],space,0,4.610889868207778,0.00306587125214719,None,1083.3134427205323,None,1,1087.9261682911401,None,None,1088.425736609284,None,,,,,,,,,,,,,,,,,,,,,,,,,,,,,,,,,,,,,,,,,,,,,,05_YY,5,26,F,2022-11-24_18h41.38.992,dynamic target,2022.1.3,120.09679270559678,
1,1,3,2,mix,0,164,164,164,,,,,,,None,1089.458211688957,None,1088.4840365909704,1089.4831674543957,1088.958637116879,None,2,"[0.008638127129415807, 0.7919152338472486]","[0.34995062598682125, 1.299612865402196]",1089.458211688957,None,[0 1 2 3 0 2 1 0],space,0,3.058739589041579,0.0030337997914102743,None,1090.2575226015606,None,1,1093.3132297660359,None,None,1093.8128400977928,None,,,,,,,,,,,,,,,,,,,,,,,,,,,,,,,,,,,,,,,,,,,,,,05_YY,5,26,F,2022-11-24_18h41.38.992,dynamic target,2022.1.3,120.09679270559678,
1,8,2,2,mix,0,165,165,165,,,,,,,None,1094.845262580271,None,1093.854444639368,1094.8536085363967,1094.3457008367768,None,4,"[0.009247164161024557, 0.24219500923118176, 0.3998656847234088, 0.4415059859775283]","[0.03385687854188291, 0.3091217326791593, 0.40928154476659984, 0.9421353883863048]",1094.845262580271,None,[0 0 2 1 3 0 3 1],space,0,3.3892420814754587,0.0026075700834553572,None,1095.2865812689206,None,1,1098.6753431726438,None,None,1099.17491373579,None,,,,,,,,,,,,,,,,,,,,,,,,,,,,,,,,,,,,,,,,,,,,,,05_YY,5,26,F,2022-11-24_18h41.38.992,dynamic target,2022.1.3,120.09679270559678,
1,1,2,1,mix,0,166,166,166,,,,,,,None,1100.2073750247355,None,1099.216554197401,1100.2156969272655,1099.7077962833673,None,4,"[0.008649672855426616, 0.46652525290755875, 0.6417813515363378, 0.7417128148254051]","[0.45900160902510834, 0.47481091468762315, 0.7094197406895546, 1.2500339155694746]",1100.2073750247355,None,[3 1 1 2 0 2 0 2],space,0,2.678729345417196,0.002796470984321786,None,1100.956736882853,None,1,1103.6377788332857,None,None,1104.137349717146,None,,,,,,,,,,,,,,,,,,,,,,,,,,,,,,,,,,,,,,,,,,,,,,05_YY,5,26,F,2022-11-24_18h41.38.992,dynamic target,2022.1.3,120.09679270559678,
1,8,2,2,mix,0,167,167,167,,,,,,,None,1105.1698055539437,None,1104.1789904994712,None,1104.6702300197212,None,1,[0.009309703508733946],[0.5175936013583851],1105.1698055539437,None,[1 0 3 1 0 0 1 2],space,0,3.4086142056667086,0.002629057962622028,None,1105.1864702054536,None,1,1108.6002183425026,None,None,1109.0997866606465,None,,,,,,,,,,,,,,,,,,,,,,,,,,,,,,,,,,,,,,,,,,,,,,05_YY,5,26,F,2022-11-24_18h41.38.992,dynamic target,2022.1.3,120.09679270559678,
1,4,3,0,mix,0,168,168,168,,,,,,,None,1110.1322389695824,None,1109.1497990562657,None,1109.632663756075,None,1,[0.008588737079662678],[0.5172090645492062],1110.1322389695824,None,[3 1 1 0 0 3 2 3],space,0,2.878542881946487,0.0027438737897682586,None,1110.14888950965,None,1,1113.0297799545033,None,None,1113.5293473105037,None,,,,,,,,,,,,,,,,,,,,,,,,,,,,,,,,,,,,,,,,,,,,,,05_YY,5,26,F,2022-11-24_18h41.38.992,dynamic target,2022.1.3,120.09679270559678,
1,5,1,1,mix,0,169,169,169,,,,,,,None,1114.5617960915797,None,1113.570976867818,None,1114.062218312355,None,1,[0.00865191785760544],[0.517659668566921],1114.5617960915797,None,[3 2 1 3 2 2 2 1],space,0,2.5763283796813994,0.0024167448937078007,None,1114.5784514423658,None,1,1117.1595808516704,None,None,1117.6591526976752,None,,,,,,,,,,,,,,,,,,,,,,,,,,,,,,,,,,,,,,,,,,,,,,05_YY,5,26,F,2022-11-24_18h41.38.992,dynamic target,2022.1.3,120.09679270559678,
1,4,1,2,mix,0,170,170,170,,,,,,,None,1118.6916066101849,None,1117.7007780856993,1118.6999176084182,1118.1920317173917,None,2,"[0.0086945728999126, 0.6419583859969862]","[0.37492050286800804, 1.1495447295847043]",1118.6916066101849,None,[1 1 3 1 3 3 1 1],space,0,2.726551099937751,0.0032387364235546556,None,1119.3410507957415,None,1,1122.0720379520835,None,None,1122.5716386624024,None,,,,,,,,,,,,,,,,,,,,,,,,,,,,,,,,,,,,,,,,,,,,,,05_YY,5,26,F,2022-11-24_18h41.38.992,dynamic target,2022.1.3,120.09679270559678,
1,3,4,2,mix,0,171,171,171,,,,,,,None,1123.6040967442023,None,1122.621632777289,None,1123.1045083813951,None,1,[0.009356527841191564],[0.5175955256463567],1123.6040967442023,None,[0 0 1 2 0 1 3 0],space,0,3.629944164227709,0.002511034987946914,None,1123.6207370214015,None,1,1127.250977457933,None,None,1127.750555397515,None,,,,,,,,,,,,,,,,,,,,,,,,,,,,,,,,,,,,,,,,,,,,,,05_YY,5,26,F,2022-11-24_18h41.38.992,dynamic target,2022.1.3,120.09679270559678,
1,1,3,0,mix,0,172,172,172,,,,,,,None,1128.7829993678715,None,1127.8005556059788,None,1128.2834241543642,None,1,[0.008626902118521684],[0.5176391428331044],1128.7829993678715,None,[2 2 0 1 2 3 3 0],space,0,3.1216185734792816,0.0025511243129585637,None,1128.7996656229543,None,1,1131.921994511291,None,None,1132.4215493594209,None,,,,,,,,,,,,,,,,,,,,,,,,,,,,,,,,,,,,,,,,,,,,,,05_YY,5,26,F,2022-11-24_18h41.38.992,dynamic target,2022.1.3,120.09679270559678,
1,8,1,2,mix,0,173,173,173,,,,,,,None,1133.454017704088,None,1132.4631930281776,1133.4623328716116,1132.9544537155916,None,1,[0.9585864439704892],[1.465929685889023],1133.454017704088,None,[0 3 2 3 1 3 2 0],space,0,2.4145737244289194,0.003393000147298153,None,1134.419860315962,None,1,1136.8344730995814,None,None,1137.334052642737,None,,,,,,,,,,,,,,,,,,,,,,,,,,,,,,,,,,,,,,,,,,,,,,05_YY,5,26,F,2022-11-24_18h41.38.992,dynamic target,2022.1.3,120.09679270559678,
1,7,2,2,mix,0,174,174,174,,,,,,,None,1138.3581731069908,None,1137.3756892557722,None,1137.8585914791902,None,1,[0.008588095651248295],[0.5173947583052723],1138.3581731069908,None,[1 3 1 0 1 2 0 3],space,0,8.79436395783523,0.0026839001602638746,None,1138.3748207606259,None,1,1147.1673100736143,None,None,1147.666896993205,None,,,,,,,,,,,,,,,,,,,,,,,,,,,,,,,,,,,,,,,,,,,,,,05_YY,5,26,F,2022-11-24_18h41.38.992,dynamic target,2022.1.3,120.09679270559678,
1,6,2,2,mix,0,175,175,175,,,,,,,None,1148.699353150717,None,1147.7168991259568,1148.7159992007792,1148.1997779372086,None,3,"[0.008083611580332217, 0.5417674645941588, 0.592009972941014]","[0.4162731231217549, 0.5502712123043239, 1.0994837457028552]",1148.699353150717,None,[3 1 2 3 1 0 2 1],space,0,2.1906947262004905,0.0026383586855445174,None,1149.298817172471,None,1,1151.4886455805372,None,None,1151.9881892036562,None,,,,,,,,,,,,,,,,,,,,,,,,,,,,,,,,,,,,,,,,,,,,,,05_YY,5,26,F,2022-11-24_18h41.38.992,dynamic target,2022.1.3,120.09679270559678,
0,5,2,2,mix,0,176,176,176,,,,,,,None,1153.020662359042,None,1152.038214107145,1153.0373209169747,1152.5210887491075,None,2,"[0.008659615007672983, 1.1498102812765865]","[0.46656630437701097, 1.6577150944649475]",1153.020662359042,None,[1 0 0 2 3 1 2 0],space,0,2.3838646597187108,0.003060739818465663,None,1154.177994039199,None,1,1156.5593102326884,None,None,1157.0589048494292,None,,,,,,,,,,,,,,,,,,,,,,,,,,,,,,,,,,,,,,,,,,,,,,05_YY,5,26,F,2022-11-24_18h41.38.992,dynamic target,2022.1.3,120.09679270559678,
0,6,1,1,mix,0,177,177,177,,,,,,,None,1158.0830112022404,None,1157.0921922991938,1158.0913529890768,1157.583460683757,None,2,"[0.008967501026745595, 0.7253124321487121]","[0.40824146730756183, 1.2333320611651288]",1158.0830112022404,None,[3 0 3 1 1 2 2 3],space,0,2.44931609599098,0.0027560609441934503,None,1158.81573919745,None,1,1161.2636328561848,None,None,1161.7632040607602,None,,,,,,,,,,,,,,,,,,,,,,,,,,,,,,,,,,,,,,,,,,,,,,05_YY,5,26,F,2022-11-24_18h41.38.992,dynamic target,2022.1.3,120.09679270559678,
1,5,1,2,mix,0,178,178,178,,,,,,,None,1162.7873150639332,None,1161.8048374666496,None,1162.279430295407,None,1,[0.009437668635655427],[0.5164213894831846],1162.7873150639332,None,[2 1 3 1 3 2 3 0],space,0,2.4541489443499813,0.0029241153979455703,None,1162.795667594708,None,1,1165.2518793073978,None,None,1165.7514716791372,None,,,,,,,,,,,,,,,,,,,,,,,,,,,,,,,,,,,,,,,,,,,,,,05_YY,5,26,F,2022-11-24_18h41.38.992,dynamic target,2022.1.3,120.09679270559678,
1,4,3,2,mix,0,179,179,179,,,,,,,None,1166.783904424483,None,1165.7931025193093,None,1166.2843497367094,None,1,[0.00871445720531483],[0.5168421670432508],1166.783904424483,None,[1 1 0 0 3 1 1 1],space,0,3.776413561479785,0.003322122221106838,None,1166.8005530402625,None,1,1170.5806900302978,None,space,1171.0885685448893,None,54.146530080302,,,,,,,,,,,,,,,,,,,,,,,,,,,,,,,,,,,,,,,,,,,,,05_YY,5,26,F,2022-11-24_18h41.38.992,dynamic target,2022.1.3,120.09679270559678,
1,8,1,0,mix,0,180,180,180,,,,,,,None,1226.2748549808748,None,1225.300748195099,1226.2998309513332,1225.7752858609438,None,1,[12.88979829296386],[13.39735064080378],1226.2748549808748,None,[3 2 3 2 2 2 0 2],space,0,3.192941652711852,0.0026729958635769435,None,1239.1721740312896,None,1,1242.3694596953146,None,None,1242.8690392384694,None,,,,,,,,,,,,,,,,,,,,,,,,,,,,,,,,,,,,,,,,,,,,,,05_YY,5,26,F,2022-11-24_18h41.38.992,dynamic target,2022.1.3,120.09679270559678,
0,8,2,0,mix,0,181,181,181,,,,,,,None,1243.9014735873889,None,1242.910682907227,None,1243.4019211446175,None,1,[0.009273462758756068],[0.5174977076922005],1243.9014735873889,None,[0 1 1 3 0 1 2 1],space,0,2.303335467794568,0.0026367551135990652,None,1243.9181485017662,None,1,1246.2245047124206,None,None,1246.7240634091256,None,,,,,,,,,,,,,,,,,,,,,,,,,,,,,,,,,,,,,,,,,,,,,,05_YY,5,26,F,2022-11-24_18h41.38.992,dynamic target,2022.1.3,120.09679270559678,
1,7,4,2,mix,0,182,182,182,,,,,,,None,1247.7565330366515,None,1246.7824047629974,None,1247.256957502429,None,1,[0.008672764306538738],[0.5171830866656819],1247.7565330366515,None,[0 2 3 2 3 0 0 2],space,0,2.3848091642257714,0.002848106036253739,None,1247.7731919152984,None,1,1250.162822634882,None,None,1250.6623896701674,None,,,,,,,,,,,,,,,,,,,,,,,,,,,,,,,,,,,,,,,,,,,,,,05_YY,5,26,F,2022-11-24_18h41.38.992,dynamic target,2022.1.3,120.09679270559678,
1,6,2,2,mix,0,183,183,183,,,,,,,None,1251.6948403755314,None,1250.7124014243582,None,1251.195265162024,None,1,[0.008658973578349105],[0.517600336365831],1251.6948403755314,None,[0 0 2 1 1 1 1 0],space,0,3.0529564633116024,0.0023910877271191566,None,1251.7115075927577,None,1,1254.7672272651034,None,None,1255.2667997525366,None,,,,,,,,,,,,,,,,,,,,,,,,,,,,,,,,,,,,,,,,,,,,,,05_YY,5,26,F,2022-11-24_18h41.38.992,dynamic target,2022.1.3,120.09679270559678,
1,5,4,2,mix,0,184,184,184,,,,,,,None,1256.299247250755,None,1255.3084325169975,1256.307565625424,1255.7996713958173,None,2,"[0.19178701214877947, 0.2167498333083131]","[0.20050243149762537, 0.7170347882338319]",1256.299247250755,None,[0 0 0 0 0 0 0 1],space,0,2.6807424709822953,0.002526108573874808,None,1256.5157302495127,None,1,1259.1967738035182,None,None,1259.6963453288079,None,,,,,,,,,,,,,,,,,,,,,,,,,,,,,,,,,,,,,,,,,,,,,,05_YY,5,26,F,2022-11-24_18h41.38.992,dynamic target,2022.1.3,120.09679270559678,
0,4,1,2,mix,0,185,185,185,,,,,,,None,1260.7288008448904,None,1259.7546812305309,None,1260.229242629257,None,1,[0.008660577151204052],[0.5175467770268369],1260.7288008448904,None,[2 3 2 3 3 0 1 2],space,0,3.0422561412824507,0.00244849563932803,None,1260.7454606856818,None,1,1263.792855569065,None,None,1264.2924280564982,None,,,,,,,,,,,,,,,,,,,,,,,,,,,,,,,,,,,,,,,,,,,,,,05_YY,5,26,F,2022-11-24_18h41.38.992,dynamic target,2022.1.3,120.09679270559678,
1,3,2,2,mix,0,186,186,186,,,,,,,None,1265.3165568593322,None,1264.3340656316777,None,1264.816991267262,None,1,[0.008683347888108983],[0.5171311309004523],1265.3165568593322,None,[2 1 0 3 0 3 2 2],space,0,3.8955702616731287,0.0029565075728896772,None,1265.3331884772379,None,1,1269.2298837377493,None,None,1269.7294430758845,None,,,,,,,,,,,,,,,,,,,,,,,,,,,,,,,,,,,,,,,,,,,,,,05_YY,5,26,F,2022-11-24_18h41.38.992,dynamic target,2022.1.3,120.09679270559678,
1,2,1,2,mix,0,187,187,187,,,,,,,None,1270.7619165519845,None,1269.7711005353694,None,1270.2623413384772,None,1,[0.008728247932594968],[0.5177222079146304],1270.7619165519845,None,[0 1 3 3 0 3 2 1],space,0,2.224935820837345,0.0023593369805894326,None,1270.7785430384565,None,1,1273.0016779788057,None,None,1273.5012421276595,None,,,,,,,,,,,,,,,,,,,,,,,,,,,,,,,,,,,,,,,,,,,,,,05_YY,5,26,F,2022-11-24_18h41.38.992,dynamic target,2022.1.3,120.09679270559678,
1,1,2,2,mix,0,188,188,188,,,,,,,None,1274.525368364776,None,1273.5428880414183,1274.5420243569915,1274.0257937926972,None,2,"[0.008644220707537897, 0.5258516816838892]","[0.2916023767520528, 1.0331105756604302]",1274.525368364776,None,[1 3 3 3 1 0 1 2],space,0,2.9853870277984242,0.002992106892634183,None,1275.0582343955512,None,1,1278.0473650569256,None,None,1278.5469484486555,None,,,,,,,,,,,,,,,,,,,,,,,,,,,,,,,,,,,,,,,,,,,,,,05_YY,5,26,F,2022-11-24_18h41.38.992,dynamic target,2022.1.3,120.09679270559678,
1,2,2,1,mix,0,189,189,189,,,,,,,None,1279.5710734029135,None,1278.5885683845318,None,1279.071490171541,None,1,[0.008188805970348767],[0.5173084860762174],1279.5710734029135,None,[2 1 3 2 0 0 2 1],space,0,4.966852930865571,0.0023817870023776777,None,1279.5877002101006,None,1,1284.558477657578,None,None,1285.0580565593034,None,,,,,,,,,,,,,,,,,,,,,,,,,,,,,,,,,,,,,,,,,,,,,,05_YY,5,26,F,2022-11-24_18h41.38.992,dynamic target,2022.1.3,120.09679270559678,
1,1,1,2,mix,0,190,190,190,,,,,,,None,1286.090506302523,None,1285.099682909472,None,1285.5909320511591,None,1,[0.00871092934448825],[0.5176699314342841],1286.090506302523,None,[1 1 1 3 3 1 2 3],space,0,2.4794767387293177,0.0025196942824550206,None,1286.1071562011612,None,1,1288.588374031482,None,None,1289.0879490846326,None,,,,,,,,,,,,,,,,,,,,,,,,,,,,,,,,,,,,,,,,,,,,,,05_YY,5,26,F,2022-11-24_18h41.38.992,dynamic target,2022.1.3,120.09679270559678,
1,8,3,2,mix,0,191,191,191,,,,,,,None,1290.120408128576,None,1289.1379618009669,1290.1370561029262,1289.6208287457785,None,4,"[0.008697780045622494, 0.3249756176728624, 0.39996991697080375, 0.4165954412992505]","[0.31695871473039006, 0.3416521356230078, 0.40853973188950476, 0.9256419984758395]",1290.120408128576,None,[0 3 0 3 2 3 0 3],space,0,4.089800156956699,0.0022644054579359363,None,1290.5450448471265,None,1,1294.6331999908916,None,None,1295.132792041916,None,,,,,,,,,,,,,,,,,,,,,,,,,,,,,,,,,,,,,,,,,,,,,,05_YY,5,26,F,2022-11-24_18h41.38.992,dynamic target,2022.1.3,120.09679270559678,
0,7,1,2,mix,0,192,192,192,,,,,,,None,1296.165231522269,None,1295.1827515196264,1296.1819022673562,1295.6656745894934,None,2,"[0.008653842144667578, 0.4748041796810867]","[0.15845578484186262, 0.9750798338827735]",1296.165231522269,None,[1 0 0 0 1 3 2 1],space,0,2.65081659133466,0.0026713922907219967,None,1296.6398541774843,None,1,1299.2958989902945,None,None,1299.7954849477417,None,,,,,,,,,,,,,,,,,,,,,,,,,,,,,,,,,,,,,,,,,,,,,,05_YY,5,26,F,2022-11-24_18h41.38.992,dynamic target,2022.1.3,120.09679270559678,
1,6,2,2,mix,0,193,193,193,,,,,,,None,1300.8279372566785,None,1299.8454960605022,None,1300.3283418381507,None,1,[0.00865191785760544],[0.517379043289111],1300.8279372566785,None,[0 3 3 2 3 0 2 3],space,0,2.7495258112703596,0.0027069916104665026,None,1300.8445897210331,None,1,1303.5922460188895,None,None,1304.0918239584714,None,,,,,,,,,,,,,,,,,,,,,,,,,,,,,,,,,,,,,,,,,,,,,,05_YY,5,26,F,2022-11-24_18h41.38.992,dynamic target,2022.1.3,120.09679270559678,
0,5,2,2,mix,0,194,194,194,,,,,,,None,1305.1242589488193,None,1304.1501050179968,1305.1492695564548,1304.6246988088978,None,3,"[0.008626260688288312, 0.04232566836071783, 0.15010373513814557]","[0.01722461920689966, 0.05048304429965356, 0.6589588256965726]",1305.1242589488193,None,[1 1 1 0 3 3 3 3],space,0,2.6315426058117737,0.0022916661991985166,None,1305.2824533512594,None,1,1307.9135603586492,None,None,1308.4131238660736,None,,,,,,,,,,,,,,,,,,,,,,,,,,,,,,,,,,,,,,,,,,,,,,05_YY,5,26,F,2022-11-24_18h41.38.992,dynamic target,2022.1.3,120.09679270559678,
0,4,3,2,mix,0,195,195,195,,,,,,,None,1309.4372619696305,None,1308.454806982727,None,1308.9376854732645,None,1,[0.008657049290377472],[0.5173386332489827],1309.4372619696305,None,[0 0 1 1 3 3 1 3],space,0,2.8124721457752457,0.00272655520166154,None,1309.4539189239904,None,1,1312.2681863621247,None,None,1312.7677373616805,None,,,,,,,,,,,,,,,,,,,,,,,,,,,,,,,,,,,,,,,,,,,,,,05_YY,5,26,F,2022-11-24_18h41.38.992,dynamic target,2022.1.3,120.09679270559678,
1,3,1,2,mix,0,196,196,196,,,,,,,None,1313.800204102774,None,1312.8093698054263,1313.8085115731474,1313.300620229972,None,1,[0.49151597623767884],[0.9916373667147127],1313.800204102774,None,[1 0 2 2 2 3 2 0],space,0,3.2390828627103474,0.0029173803895901074,None,1314.2914522823176,None,1,1317.530363494725,None,None,1318.02992219143,None,,,,,,,,,,,,,,,,,,,,,,,,,,,,,,,,,,,,,,,,,,,,,,05_YY,5,26,F,2022-11-24_18h41.38.992,dynamic target,2022.1.3,120.09679270559678,
0,2,3,2,mix,0,197,197,197,,,,,,,None,1319.054057087841,None,1318.0715735573376,None,1318.5544854021937,None,1,[0.00888347380077903],[0.5172975817795304],1319.054057087841,None,[3 1 3 1 3 1 2 3],space,0,2.746999221624719,0.002718537337386806,None,1319.0706973650413,None,1,1321.8183478900346,None,None,1322.3179409032034,None,,,,,,,,,,,,,,,,,,,,,,,,,,,,,,,,,,,,,,,,,,,,,,05_YY,5,26,F,2022-11-24_18h41.38.992,dynamic target,2022.1.3,120.09679270559678,
1,1,4,2,mix,0,198,198,198,,,,,,,None,1323.3503948157131,None,1322.35958040267,None,1322.850823771495,None,1,[0.009639718836297106],[0.5171513359209712],1323.3503948157131,None,[2 3 2 0 0 2 2 3],space,0,2.114555475767702,0.0028060924232704565,None,1323.367053373645,None,1,1325.4819124981523,None,None,1325.9814859477299,None,,,,,,,,,,,,,,,,,,,,,,,,,,,,,,,,,,,,,,,,,,,,,,05_YY,5,26,F,2022-11-24_18h41.38.992,dynamic target,2022.1.3,120.09679270559678,
0,8,3,2,mix,0,199,199,199,,,,,,,None,1327.0139363323788,None,1326.031494494774,None,1326.5143617602998,None,1,[0.008594830657784769],[0.5172190067023621],1327.0139363323788,None,[3 3 1 1 3 2 1 3],space,0,2.194775819529241,0.0026944837418341194,None,1327.0305974560279,None,1,1329.2287134501612,None,None,1329.7282846547366,None,,,,,,,,,,,,,,,,,,,,,,,,,,,,,,,,,,,,,,,,,,,,,,05_YY,5,26,F,2022-11-24_18h41.38.992,dynamic target,2022.1.3,120.09679270559678,
0,7,2,2,mix,0,200,200,200,,,,,,,None,1330.7607388879605,None,1329.7699263992063,1330.7690704119295,1330.2611665608847,None,1,[1.025558388178979],[1.5330751366973345],1330.7607388879605,None,[2 2 2 1 0 3 2 2],space,0,4.11963110508168,0.0026162293788729585,None,1331.7932000165492,None,1,1335.9146838219049,None,None,1336.4142450843271,None,,,,,,,,,,,,,,,,,,,,,,,,,,,,,,,,,,,,,,,,,,,,,,05_YY,5,26,F,2022-11-24_18h41.38.992,dynamic target,2022.1.3,120.09679270559678,
0,3,2,0,mix,0,201,201,201,,,,,,,None,1337.446703166127,None,1336.455889073799,1337.45503084152,1336.9471391776306,None,2,"[0.8093672397089904, 0.8422116222482146]","[0.8333730484919215, 1.3499127816639884]",1337.446703166127,None,[3 1 3 2 3 2 3 3],space,0,3.888431154599857,0.002633868682096363,None,1338.2959794896597,None,1,1342.1843368119107,None,None,1342.683894546473,None,,,,,,,,,,,,,,,,,,,,,,,,,,,,,,,,,,,,,,,,,,,,,,05_YY,5,26,F,2022-11-24_18h41.38.992,dynamic target,2022.1.3,120.09679270559678,
0,2,4,2,mix,0,202,202,202,,,,,,,None,1343.7163574389915,None,1342.7255372530863,None,1343.216779980482,None,1,[0.00866474644135451],[0.5174941798313739],1343.7163574389915,None,[3 2 0 3 3 1 3 0],space,0,2.083229997590024,0.002622964385409432,None,1343.7330082997732,None,1,1345.8145679477184,None,None,1346.3141407558667,None,,,,,,,,,,,,,,,,,,,,,,,,,,,,,,,,,,,,,,,,,,,,,,05_YY,5,26,F,2022-11-24_18h41.38.992,dynamic target,2022.1.3,120.09679270559678,
1,1,2,2,mix,0,203,203,203,,,,,,,None,1347.3465741426417,None,1346.3641063271543,1347.3632468120168,1346.8470255484463,None,2,"[0.09188890317818732, 0.933188733809402]","[0.567284801302776, 1.44170803617817]",1347.3465741426417,None,[1 0 1 0 2 1 1 0],space,0,3.04931506970388,0.002654073700796289,None,1348.2874584233605,None,1,1351.334859721036,None,None,1351.8344363777594,None,,,,,,,,,,,,,,,,,,,,,,,,,,,,,,,,,,,,,,,,,,,,,,05_YY,5,26,F,2022-11-24_18h41.38.992,dynamic target,2022.1.3,120.09679270559678,
0,8,2,2,mix,0,204,204,204,,,,,,,None,1352.8668835552626,None,1351.8843964968992,None,1352.367313473189,None,1,[0.009420029333341517],[0.5175570398942],1352.8668835552626,None,[0 1 3 0 2 3 3 1],space,0,4.291621046188993,0.0022259197048697388,None,1352.883545320341,None,1,1357.179856428901,None,None,1357.6794279541907,None,,,,,,,,,,,,,,,,,,,,,,,,,,,,,,,,,,,,,,,,,,,,,,05_YY,5,26,F,2022-11-24_18h41.38.992,dynamic target,2022.1.3,120.09679270559678,
