tar_letter,tar_pos,tar_ori,tar_pos_type,block,trials.thisRepN,trials.thisTrialN,trials.thisN,trials.thisIndex,instructions_key.keys,instructions_key.rt,instructions_key.started,instructions_key.stopped,instruction_text.started,instruction_text.stopped,fix_key.keys,fix_key.started,fix_key.stopped,fixcross.started,fixcross.stopped,roi.started,roi.stopped,roi.numLooks,roi.timesOn,roi.timesOff,RedFixCross.started,RedFixCross.stopped,distori,search_resp.keys,search_resp.corr,search_resp.rt,search_resp.started,search_resp.stopped,fixcross_shape.started,fixcross_shape.stopped,correct,feedback_text.started,feedback_text.stopped,break_key.keys,break_key.started,break_key.stopped,break_key.rt,fix_key.rt,text_q1.started,text_q1.stopped,key_resp1.keys,key_resp1.rt,key_resp1.started,key_resp1.stopped,text_q2.started,text_q2.stopped,key_resp_2.keys,key_resp_2.rt,key_resp_2.started,key_resp_2.stopped,image.started,image.stopped,text_q1_2.started,text_q1_2.stopped,slider.response,slider.rt,slider.started,slider.stopped,mouse.x,mouse.y,mouse.leftButton,mouse.midButton,mouse.rightButton,mouse.time,mouse.started,mouse.stopped,key_resp_3.keys,key_resp_3.rt,key_resp_3.started,key_resp_3.stopped,text_q4.started,text_q4.stopped,key_resp1_3.keys,key_resp1_3.rt,key_resp1_3.started,key_resp1_3.stopped,finish_text.started,finish_text.stopped,key_resp.keys,key_resp.rt,key_resp.started,key_resp.stopped,participant,group,age,gender,date,expName,psychopyVersion,frameRate,
,,,,,,,,,space,20.051983790143822,60.957308977132016,None,,,,,,,,,,,,,,,,,,,,,,,,,,,,,,,,,,,,,,,,,,,,,,,,,,,,,,,,,,,,,,,,,,,,,,,,,,,06_JM,6,33,M,2022-11-25_13h46.28.630,dynamic target,2022.1.3,120.09151132274278,
0,8,3,0,mix,0,0,0,0,,,,,60.957308977132016,None,None,115.1774214446441,None,114.21270881600594,None,114.67786017954768,None,1,[0.008490225960485986],[0.5170109196242265],115.1774214446441,None,[2 2 3 0 1 3 3 1],space,0,4.060399610770219,0.00687524534532713,None,115.20241009141591,None,1,119.26558214477245,None,None,119.76515117111403,None,,,,,,,,,,,,,,,,,,,,,,,,,,,,,,,,,,,,,,,,,,,,,,,06_JM,6,33,M,2022-11-25_13h46.28.630,dynamic target,2022.1.3,120.09151132274278,
1,7,2,2,mix,0,1,1,1,,,,,,,None,120.78931327724695,None,119.79845807772563,None,120.28971352663302,None,1,[0.008712800539797172],[0.5178592045813275],120.78931327724695,None,[3 1 1 3 1 0 2 0],space,0,4.851878019111609,0.002339342205232242,None,120.80593613456585,None,1,125.66009590591057,None,None,126.15967936432234,None,,,,,,,,,,,,,,,,,,,,,,,,,,,,,,,,,,,,,,,,,,,,,,,06_JM,6,33,M,2022-11-25_13h46.28.630,dynamic target,2022.1.3,120.09151132274278,
0,6,1,2,mix,0,2,2,2,,,,,,,None,127.19211585680296,None,126.20962420174601,None,126.69254336676477,None,1,[0.00824584292331565],[0.5169066880134778],127.19211585680296,None,[2 2 2 1 1 2 2 1],space,0,3.711936337500447,0.00193909281915694,None,127.2087730303756,None,1,130.92225283959033,None,None,131.42182795947184,None,,,,,,,,,,,,,,,,,,,,,,,,,,,,,,,,,,,,,,,,,,,,,,,06_JM,6,33,M,2022-11-25_13h46.28.630,dynamic target,2022.1.3,120.09151132274278,
1,5,4,2,mix,0,3,3,3,,,,,,,None,132.44593586516748,None,131.45513518679581,None,131.9463704308073,None,1,[0.00859766469875467],[0.5177492001430437],132.44593586516748,None,[3 0 1 2 1 3 0 2],space,0,2.218789646100049,0.002142424638805096,None,132.46261709218834,None,0,134.6940160792492,None,None,135.1936056312009,None,,,,,,,,,,,,,,,,,,,,,,,,,,,,,,,,,,,,,,,,,,,,,,,06_JM,6,33,M,2022-11-25_13h46.28.630,dynamic target,2022.1.3,120.09151132274278,
0,4,1,2,mix,0,4,4,4,,,,,,,None,136.22605880074025,None,135.2435459786484,136.24268550661054,135.72646386081578,None,2,"[0.008626208124042023, 0.8336251818436722]","[0.2250062218254243, 1.3414961116795894]",136.22605880074025,None,[2 2 2 3 2 2 1 2],space,0,5.533992772662714,0.0025856495194602758,None,137.06701483231882,None,1,142.61222024235667,None,None,143.1117950415258,None,,,,,,,,,,,,,,,,,,,,,,,,,,,,,,,,,,,,,,,,,,,,,,,06_JM,6,33,M,2022-11-25_13h46.28.630,dynamic target,2022.1.3,120.09151132274278,
0,3,2,2,mix,0,5,5,5,,,,,,,None,144.1442565495936,None,143.1534247620957,None,143.64468598383064,None,1,[0.00864513017131685],[0.5174798015177657],144.1442565495936,None,[2 0 3 2 0 3 1 3],space,0,4.40725515153008,0.0025946294736058917,None,144.16088902829233,None,1,148.5737732099742,None,None,149.07335827194885,None,,,,,,,,,,,,,,,,,,,,,,,,,,,,,,,,,,,,,,,,,,,,,,,06_JM,6,33,M,2022-11-25_13h46.28.630,dynamic target,2022.1.3,120.09151132274278,
0,2,3,2,mix,0,6,6,6,,,,,,,None,150.10579444371797,None,149.13168108590708,150.13078148692694,149.60622708508163,None,2,"[0.008689067803970829, 0.8084146019182299]","[0.2000304035591398, 1.316157567407572]",150.10579444371797,None,[1 2 2 3 2 3 0 2],space,0,4.2708307255416,0.003152990196213068,None,150.92176856348942,None,1,155.19310333105022,None,None,155.69267043311567,None,,,,,,,,,,,,,,,,,,,,,,,,,,,,,,,,,,,,,,,,,,,,,,,06_JM,6,33,M,2022-11-25_13h46.28.630,dynamic target,2022.1.3,120.09151132274278,
1,1,4,2,mix,0,7,7,7,,,,,,,None,156.7251207803841,None,155.75101665909824,None,156.2172202808415,None,1,[0.008633905227725336],[0.516469556672746],156.7251207803841,None,[3 2 1 0 3 1 3 0],space,0,5.050195496411106,0.002149159604414308,None,156.73342909813073,None,1,161.78744480535352,None,None,162.2870494307993,None,,,,,,,,,,,,,,,,,,,,,,,,,,,,,,,,,,,,,,,,,,,,,,,06_JM,6,33,M,2022-11-25_13h46.28.630,dynamic target,2022.1.3,120.09151132274278,
0,8,1,2,mix,0,8,8,8,,,,,,,None,163.31946283196976,None,162.33697342190135,None,162.81989002121827,None,1,[0.008580987640925741],[0.5172976367321098],163.31946283196976,None,[0 3 1 1 3 1 0 2],space,0,5.4872258127370515,0.0027745492707254016,None,163.3361299476337,None,1,168.8230839984917,None,None,169.3226459691553,None,,,,,,,,,,,,,,,,,,,,,,,,,,,,,,,,,,,,,,,,,,,,,,,06_JM,6,33,M,2022-11-25_13h46.28.630,dynamic target,2022.1.3,120.09151132274278,
0,7,2,2,mix,0,9,9,9,,,,,,,None,170.3467766454487,None,169.36435971643914,None,169.84720479683529,None,1,[0.009687766993010882],[0.517322652319308],170.3467766454487,None,[0 0 1 3 1 2 3 3],space,0,5.036024808008733,0.002338380067158141,None,170.36342932904336,None,1,175.4007740720499,None,None,175.9003389291277,None,,,,,,,,,,,,,,,,,,,,,,,,,,,,,,,,,,,,,,,,,,,,,,,06_JM,6,33,M,2022-11-25_13h46.28.630,dynamic target,2022.1.3,120.09151132274278,
0,8,2,1,mix,0,10,10,10,,,,,,,None,176.93279498508036,None,175.94197762965177,None,176.4332212121917,None,1,[0.009559161221659451],[0.5177463137288214],176.93279498508036,None,[3 2 0 3 1 1 0 2],space,0,4.8015171532388194,0.002342549331842747,None,176.9494800606535,None,1,181.75364938923485,None,None,182.25323669619803,None,,,,,,,,,,,,,,,,,,,,,,,,,,,,,,,,,,,,,,,,,,,,,,,06_JM,6,33,M,2022-11-25_13h46.28.630,dynamic target,2022.1.3,120.09151132274278,
0,1,3,1,mix,0,11,11,11,,,,,,,None,183.28568697932315,None,182.31153962597182,None,182.78608498372068,None,1,[0.008669825045217294],[0.5173386879523605],183.28568697932315,None,[0 0 2 1 2 3 1 1],space,0,3.7124985467735314,0.0027883399143320275,None,183.30232362728566,None,1,187.01580504006324,None,None,187.5153830463599,None,,,,,,,,,,,,,,,,,,,,,,,,,,,,,,,,,,,,,,,,,,,,,,,06_JM,6,33,M,2022-11-25_13h46.28.630,dynamic target,2022.1.3,120.09151132274278,
0,8,4,2,mix,0,12,12,12,,,,,,,None,188.54779901323127,None,187.56539747842908,None,188.0482608394459,None,1,[0.008721459780645091],[0.51687333389782],188.54779901323127,None,[3 3 1 3 1 3 1 0],space,0,3.3947152869477577,0.003221943416065187,None,188.5644773538388,None,1,191.9615613061469,None,None,192.46112071110957,None,,,,,,,,,,,,,,,,,,,,,,,,,,,,,,,,,,,,,,,,,,,,,,,06_JM,6,33,M,2022-11-25_13h46.28.630,dynamic target,2022.1.3,120.09151132274278,
0,7,3,2,mix,0,13,13,13,,,,,,,None,193.49358029490213,None,192.51109216768418,None,192.99401742624286,None,1,[0.008669183619531395],[0.5171969329603598],193.49358029490213,None,[0 3 1 1 1 1 1 3],space,0,1.98442983986115,0.0027636450404315838,None,193.51023458206055,None,1,195.49187602788425,None,None,195.9914463370772,None,,,,,,,,,,,,,,,,,,,,,,,,,,,,,,,,,,,,,,,,,,,,,,,06_JM,6,33,M,2022-11-25_13h46.28.630,dynamic target,2022.1.3,120.09151132274278,
0,8,3,1,mix,0,14,14,14,,,,,,,None,197.02388731953488,None,196.0497701131735,None,196.5243180366233,None,1,[0.008601513251051074],[0.5172819218132645],197.02388731953488,None,[0 0 2 0 0 2 1 1],space,0,2.453925576948677,0.0028707630654025706,None,197.04056886726903,None,1,199.49677491360035,None,None,199.99633944996486,None,,,,,,,,,,,,,,,,,,,,,,,,,,,,,,,,,,,,,,,,,,,,,,,06_JM,6,33,M,2022-11-25_13h46.28.630,dynamic target,2022.1.3,120.09151132274278,
0,7,2,2,mix,0,15,15,15,,,,,,,None,201.02879101594044,None,200.04632341433262,None,200.5292166016261,None,1,[0.008452061156276613],[0.5170298416705918],201.02879101594044,None,[1 1 3 2 0 0 0 1],space,0,3.2010526330377616,0.0029240013645903673,None,201.0454440202484,None,1,204.25102339406385,None,None,204.75063732017617,None,,,,,,,,,,,,,,,,,,,,,,,,,,,,,,,,,,,,,,,,,,,,,,,06_JM,6,33,M,2022-11-25_13h46.28.630,dynamic target,2022.1.3,120.09151132274278,
1,6,4,2,mix,0,16,16,16,,,,,,,None,205.78304719350763,None,204.80892004505404,None,205.28347470346944,None,1,[0.00865475155023887],[0.5172585097898263],205.78304719350763,None,[1 2 2 2 2 3 3 3],space,0,2.4937972149182315,0.0026799390388987376,None,205.7996928214243,None,0,208.29755912017026,None,None,208.7971368057536,None,,,,,,,,,,,,,,,,,,,,,,,,,,,,,,,,,,,,,,,,,,,,,,,06_JM,6,33,M,2022-11-25_13h46.28.630,dynamic target,2022.1.3,120.09151132274278,
0,5,1,2,mix,0,17,17,17,,,,,,,None,209.8212498428511,None,208.83042799744453,None,209.32167639067393,None,1,[0.008663410791996284],[0.5176735119575824],209.8212498428511,None,[1 3 1 3 1 3 2 2],space,0,2.6631341351021547,0.0023771862979629077,None,209.83789899860676,None,1,212.50228764332678,None,None,213.00183518192108,None,,,,,,,,,,,,,,,,,,,,,,,,,,,,,,,,,,,,,,,,,,,,,,,06_JM,6,33,M,2022-11-25_13h46.28.630,dynamic target,2022.1.3,120.09151132274278,
1,4,3,2,mix,0,18,18,18,,,,,,,None,214.02601300297374,None,213.06017114509814,None,213.52641164879697,None,1,[0.008713762677871273],[0.517267489743972],214.02601300297374,None,[0 2 0 2 1 0 3 0],space,0,4.1544261452518185,0.0029717875495407498,None,214.04262206964904,None,1,218.19739799413492,None,None,218.69696188907466,None,,,,,,,,,,,,,,,,,,,,,,,,,,,,,,,,,,,,,,,,,,,,,,,06_JM,6,33,M,2022-11-25_13h46.28.630,dynamic target,2022.1.3,120.09151132274278,
0,3,2,2,mix,0,19,19,19,,,,,,,None,219.7294359049356,None,218.75529560726318,None,219.22983936144828,None,1,[0.008730760448088404],[0.5171937258346588],219.7294359049356,None,[0 0 2 2 2 2 2 2],space,0,3.65078445312065,0.0030817919878245448,None,219.74607030790958,None,1,223.40126347955265,None,None,223.90082577092954,None,,,,,,,,,,,,,,,,,,,,,,,,,,,,,,,,,,,,,,,,,,,,,,,06_JM,6,33,M,2022-11-25_13h46.28.630,dynamic target,2022.1.3,120.09151132274278,
0,2,2,2,mix,0,20,20,20,,,,,,,None,224.93328214759458,None,223.95082865734275,None,224.43370677114217,None,1,[0.009465513126997394],[0.5174804429425421],224.93328214759458,None,[1 3 2 2 3 3 3 0],space,0,3.423023630351963,0.0025760281405382557,None,224.94994124544246,None,1,228.37200422314436,None,None,228.87157292877356,None,,,,,,,,,,,,,,,,,,,,,,,,,,,,,,,,,,,,,,,,,,,,,,,06_JM,6,33,M,2022-11-25_13h46.28.630,dynamic target,2022.1.3,120.09151132274278,
1,3,4,1,mix,0,21,21,21,,,,,,,None,229.90402038962776,None,228.9298492393982,None,229.3961192486604,None,1,[0.008677842860379315],[0.5166347236863658],229.90402038962776,None,[1 2 0 3 2 0 1 1],space,0,3.372642559581436,0.003126691759462119,None,229.91234730870747,None,1,233.2844544806121,None,None,233.78401741341378,None,,,,,,,,,,,,,,,,,,,,,,,,,,,,,,,,,,,,,,,,,,,,,,,06_JM,6,33,M,2022-11-25_13h46.28.630,dynamic target,2022.1.3,120.09151132274278,
0,4,3,1,mix,0,22,22,22,,,,,,,None,234.8164712243788,None,233.84231649463618,None,234.3168990550521,None,1,[0.008678163573677011],[0.5172803182495045],234.8164712243788,None,[1 1 2 2 3 3 1 0],space,0,4.0188929797150195,0.0027030303499486763,None,234.83312038013446,None,1,238.85467772227275,None,None,239.3542486728914,None,,,,,,,,,,,,,,,,,,,,,,,,,,,,,,,,,,,,,,,,,,,,,,,06_JM,6,33,M,2022-11-25_13h46.28.630,dynamic target,2022.1.3,120.09151132274278,
0,3,1,2,mix,0,23,23,23,,,,,,,None,240.38669703174037,None,239.40422109160318,None,239.88715116085132,None,1,[0.008668542194754991],[0.5170949463381476],240.38669703174037,None,[0 3 0 1 3 1 2 1],space,0,3.520767865862581,0.002868518075956672,None,240.4033368868295,None,1,243.9253249460562,None,None,244.4249013487891,None,,,,,,,,,,,,,,,,,,,,,,,,,,,,,,,,,,,,,,,,,,,,,,,06_JM,6,33,M,2022-11-25_13h46.28.630,dynamic target,2022.1.3,120.09151132274278,
1,4,2,1,mix,0,24,24,24,,,,,,,None,245.45734714193713,None,244.47484297908704,None,244.9577762554618,None,1,[0.00862107672219281],[0.5171725587988476],245.45734714193713,None,[0 0 3 0 1 1 3 3],space,0,4.177494043968181,0.002762362189059786,None,245.4739995048194,None,1,249.65374034334218,None,None,250.15332348104067,None,,,,,,,,,,,,,,,,,,,,,,,,,,,,,,,,,,,,,,,,,,,,,,,06_JM,6,33,M,2022-11-25_13h46.28.630,dynamic target,2022.1.3,120.09151132274278,
1,3,3,2,mix,0,25,25,25,,,,,,,None,251.1857660670621,None,250.20327152559184,None,250.68618812490877,None,1,[0.008637433067633538],[0.517299561008258],251.1857660670621,None,[3 3 0 3 3 1 0 1],space,0,2.529301388031854,0.002648829911777284,None,251.20243606914028,None,1,253.73359073730535,None,None,254.2331539908203,None,,,,,,,,,,,,,,,,,,,,,,,,,,,,,,,,,,,,,,,,,,,,,,,06_JM,6,33,M,2022-11-25_13h46.28.630,dynamic target,2022.1.3,120.09151132274278,
1,2,2,2,mix,0,26,26,26,,,,,,,None,255.26558214477245,None,254.2831049217848,None,254.7660218418141,None,1,[0.008658920814923476],[0.5168945009327217],255.26558214477245,None,[2 3 2 3 1 0 0 2],space,0,2.3372304309987157,0.0030862819648973527,None,255.2822534297011,None,1,257.6219035193726,None,None,258.12147831854173,None,,,,,,,,,,,,,,,,,,,,,,,,,,,,,,,,,,,,,,,,,,,,,,,06_JM,6,33,M,2022-11-25_13h46.28.630,dynamic target,2022.1.3,120.09151132274278,
0,1,3,2,mix,0,27,27,27,,,,,,,None,259.153923470265,None,258.1797931146848,None,258.65434520739836,None,1,[0.008617228170805902],[0.5172543405251417],259.153923470265,None,[2 1 1 3 1 1 0 0],space,0,2.784360630072115,0.0028175247653052793,None,259.1705751917225,None,1,261.9598506248767,None,None,262.4594199719316,None,,,,,,,,,,,,,,,,,,,,,,,,,,,,,,,,,,,,,,,,,,,,,,,06_JM,6,33,M,2022-11-25_13h46.28.630,dynamic target,2022.1.3,120.09151132274278,
0,8,2,2,mix,0,28,28,28,,,,,,,None,263.49187570717186,None,262.5177514451316,None,262.99230001000615,None,1,[0.008605041089140286],[0.5171600510057033],263.49187570717186,None,[0 3 3 0 3 3 1 2],space,0,1.9669856374475785,0.002927849916886771,None,263.50854057784727,None,1,265.4735007966501,None,None,265.9730781615211,None,,,,,,,,,,,,,,,,,,,,,,,,,,,,,,,,,,,,,,,,,,,,,,,06_JM,6,33,M,2022-11-25_13h46.28.630,dynamic target,2022.1.3,120.09151132274278,
1,7,3,2,mix,0,29,29,29,,,,,,,None,267.00552299253104,None,266.03136441423794,None,266.5059514646309,None,1,[0.008568159135393216],[0.5172909017665006],267.00552299253104,None,[2 3 2 2 1 3 2 2],space,0,3.33214553194739,0.002401239745267958,None,267.02217760040276,None,1,270.35267775819284,None,None,270.852209261155,None,,,,,,,,,,,,,,,,,,,,,,,,,,,,,,,,,,,,,,,,,,,,,,,06_JM,6,33,M,2022-11-25_13h46.28.630,dynamic target,2022.1.3,120.09151132274278,
1,6,3,2,mix,0,30,30,30,,,,,,,None,271.8846560164411,None,270.9022127889939,None,271.38510373129975,None,1,[0.008651544423628366],[0.5172604340650651],271.8846560164411,None,[2 3 3 0 2 0 1 3],space,0,2.0682798412726697,0.0018701395993048209,None,271.9013212078298,None,1,273.9745440748984,None,None,274.4741240054703,None,,,,,,,,,,,,,,,,,,,,,,,,,,,,,,,,,,,,,,,,,,,,,,,06_JM,6,33,M,2022-11-25_13h46.28.630,dynamic target,2022.1.3,120.09151132274278,
0,2,1,0,mix,0,31,31,31,,,,,,,None,275.5065640257908,None,274.52407910569946,None,275.0069957050164,None,1,[0.008692595642969536],[0.5171376011212487],275.5065640257908,None,[2 2 2 3 0 0 0 3],space,0,2.8466882470229393,0.002830994696523703,None,275.5232157472474,None,1,278.37077461084755,None,None,278.87034299576436,None,,,,,,,,,,,,,,,,,,,,,,,,,,,,,,,,,,,,,,,,,,,,,,,06_JM,6,33,M,2022-11-25_13h46.28.630,dynamic target,2022.1.3,120.09151132274278,
1,1,4,2,mix,0,32,32,32,,,,,,,None,279.9027647354633,None,278.9286863353318,None,279.4032191852875,None,1,[0.008666938630994991],[0.5176847369002644],279.9027647354633,None,[1 2 2 0 2 1 0 2],space,0,2.0975698860947887,0.0022097742948972154,None,279.91942736115107,None,1,282.01764593066946,None,None,282.51721463629957,None,,,,,,,,,,,,,,,,,,,,,,,,,,,,,,,,,,,,,,,,,,,,,,,06_JM,6,33,M,2022-11-25_13h46.28.630,dynamic target,2022.1.3,120.09151132274278,
0,2,2,1,mix,0,33,33,33,,,,,,,None,283.5496645987114,None,282.56714856949384,None,283.0500949950865,None,1,[0.007864194870307983],[0.5166815477341515],283.5496645987114,None,[1 2 1 0 3 3 0 1],space,0,2.8512244067333086,0.002238959145870467,None,283.56630637807666,None,1,286.4221976770141,None,None,286.92177087262036,None,,,,,,,,,,,,,,,,,,,,,,,,,,,,,,,,,,,,,,,,,,,,,,,06_JM,6,33,M,2022-11-25_13h46.28.630,dynamic target,2022.1.3,120.09151132274278,
1,6,2,0,mix,0,34,34,34,,,,,,,None,287.9542266078606,None,286.9717506677234,None,287.4546544385348,None,1,[0.008622680285043316],[0.5174871779081514],287.9542266078606,None,[0 0 2 0 1 1 2 1],space,0,3.0858048632735517,0.0020462108432184323,None,287.9708776878924,None,1,291.05989533221964,None,None,291.55945762359653,None,,,,,,,,,,,,,,,,,,,,,,,,,,,,,,,,,,,,,,,,,,,,,,,06_JM,6,33,M,2022-11-25_13h46.28.630,dynamic target,2022.1.3,120.09151132274278,
0,5,3,2,mix,0,35,35,35,,,,,,,None,292.5919056617331,None,291.6177852482442,None,292.09233509597016,None,1,[0.008656996538775275],[0.5172373427540151],292.5919056617331,None,[3 1 2 2 1 0 1 3],space,0,3.024773887563242,0.0028072619606973603,None,292.60856315601814,None,1,295.63097551807914,None,None,296.13055737292717,None,,,,,,,,,,,,,,,,,,,,,,,,,,,,,,,,,,,,,,,,,,,,,,,06_JM,6,33,M,2022-11-25_13h46.28.630,dynamic target,2022.1.3,120.09151132274278,
1,4,2,2,mix,0,36,36,36,,,,,,,None,297.162985911735,None,296.1888558127248,None,296.65508894003233,None,1,[0.008635829503873538],[0.5163938684872846],297.162985911735,None,[3 2 1 0 1 3 3 3],space,0,3.198044669101364,0.003448687259151484,None,297.17134297780376,None,1,300.3685873505801,None,None,300.86814803839326,None,,,,,,,,,,,,,,,,,,,,,,,,,,,,,,,,,,,,,,,,,,,,,,,06_JM,6,33,M,2022-11-25_13h46.28.630,dynamic target,2022.1.3,120.09151132274278,
0,6,2,0,mix,0,37,37,37,,,,,,,None,301.9005903037023,None,300.9264535338689,None,301.40101653081274,None,1,[0.008649299435091962],[0.5170166924517616],301.9005903037023,None,[2 2 0 1 0 3 1 3],space,0,2.324081533095523,0.0030965447704147664,None,301.91725421223964,None,1,304.24025418401743,None,None,304.73982962461224,None,,,,,,,,,,,,,,,,,,,,,,,,,,,,,,,,,,,,,,,,,,,,,,,06_JM,6,33,M,2022-11-25_13h46.28.630,dynamic target,2022.1.3,120.09151132274278,
1,5,1,2,mix,0,38,38,38,,,,,,,None,305.7722536093006,None,304.798166229215,None,305.2726965134689,None,1,[0.00863230166487483],[0.5172905810541124],305.7722536093006,None,[2 3 2 1 0 1 3 2],space,0,4.195412259677141,0.0026183622094322345,None,305.78892008353887,None,1,309.9853030221393,None,None,310.48489898834424,None,,,,,,,,,,,,,,,,,,,,,,,,,,,,,,,,,,,,,,,,,,,,,,,06_JM,6,33,M,2022-11-25_13h46.28.630,dynamic target,2022.1.3,120.09151132274278,
0,4,4,2,mix,0,39,39,39,,,,,,,None,311.5173380465267,None,310.5432102566474,None,311.0177652357752,None,1,[0.008587401894146751],[0.5175170041848105],311.5173380465267,None,[1 1 3 3 1 1 0 0],space,0,5.84201995370222,0.002556464668487024,None,311.533998427225,None,1,317.3789835718153,None,None,317.8785532395826,None,,,,,,,,,,,,,,,,,,,,,,,,,,,,,,,,,,,,,,,,,,,,,,,06_JM,6,33,M,2022-11-25_13h46.28.630,dynamic target,2022.1.3,120.09151132274278,
0,3,1,2,mix,0,40,40,40,,,,,,,None,318.91100448484576,None,317.93686098004673,None,318.4114246184163,None,1,[0.007884720479523821],[0.5165000243741815],318.91100448484576,None,[3 2 0 2 3 1 3 3],space,0,3.551886934923459,0.002309515929482586,None,318.9276661483955,None,1,322.48294738773166,None,None,322.98249813345257,None,,,,,,,,,,,,,,,,,,,,,,,,,,,,,,,,,,,,,,,,,,,,,,,06_JM,6,33,M,2022-11-25_13h46.28.630,dynamic target,2022.1.3,120.09151132274278,
0,2,4,2,mix,0,41,41,41,,,,,,,None,324.0149583586699,None,323.0241349097005,None,323.51537688867666,None,1,[0.008673673596604203],[0.5169275343350819],324.0149583586699,None,[1 1 1 2 1 1 1 3],space,0,2.8481997657381726,0.0031982106802388444,None,324.03160783513795,None,1,326.87918722434733,None,None,327.3787318765283,None,,,,,,,,,,,,,,,,,,,,,,,,,,,,,,,,,,,,,,,,,,,,,,,06_JM,6,33,M,2022-11-25_13h46.28.630,dynamic target,2022.1.3,120.09151132274278,
0,1,3,2,mix,0,42,42,42,,,,,,,None,328.41116804829653,None,327.4370428241191,None,327.91161640457995,None,1,[0.008558858467949904],[0.5171302247290441],328.41116804829653,None,[3 3 3 1 3 3 1 1],space,0,2.468057779834453,0.0028313154089119053,None,328.4278313154091,None,1,330.90068459322083,None,None,331.4002831251267,None,,,,,,,,,,,,,,,,,,,,,,,,,,,,,,,,,,,,,,,,,,,,,,,06_JM,6,33,M,2022-11-25_13h46.28.630,dynamic target,2022.1.3,120.09151132274278,
0,8,4,2,mix,0,43,43,43,,,,,,,None,332.42441187714394,None,331.43359420100205,None,331.9248445185076,None,1,[0.00867623929752881],[0.5173511957445953],332.42441187714394,None,[3 3 3 1 3 3 2 3],space,0,2.261730183408872,0.002559992507485731,None,332.4410575050606,None,1,334.70578783703695,None,None,335.2053793132648,None,,,,,,,,,,,,,,,,,,,,,,,,,,,,,,,,,,,,,,,,,,,,,,,06_JM,6,33,M,2022-11-25_13h46.28.630,dynamic target,2022.1.3,120.09151132274278,
1,7,2,2,mix,0,44,44,44,,,,,,,None,336.23780682579127,None,335.26369763724597,None,335.738214772281,None,1,[0.008644488745630952],[0.5172520955366053],336.23780682579127,None,[0 2 3 2 1 0 1 0],space,0,1.8249394394324554,0.002938754146271094,None,336.25445918867445,None,0,338.08622006788846,None,None,338.58577915213874,None,,,,,,,,,,,,,,,,,,,,,,,,,,,,,,,,,,,,,,,,,,,,,,,06_JM,6,33,M,2022-11-25_13h46.28.630,dynamic target,2022.1.3,120.09151132274278,
1,2,2,0,mix,0,45,45,45,,,,,,,None,339.6099146391216,None,338.6190982458302,None,339.11034375264626,None,1,[0.009605023129552137],[0.5174923093100006],339.6099146391216,None,[2 0 2 1 2 1 2 2],space,0,2.3564337422931203,0.002650112762239587,None,339.6265660398658,None,1,341.99120060704536,None,None,342.49077668906494,None,,,,,,,,,,,,,,,,,,,,,,,,,,,,,,,,,,,,,,,,,,,,,,,06_JM,6,33,M,2022-11-25_13h46.28.630,dynamic target,2022.1.3,120.09151132274278,
0,7,1,0,mix,0,46,46,46,,,,,,,None,343.52320619001085,None,342.54073371357026,None,343.0153156325605,None,1,[0.008619152446044609],[0.5163874542340636],343.52320619001085,None,[1 0 0 1 0 3 3 3],space,0,3.027529771356967,0.002860500259885157,None,343.5315417683323,None,1,346.5622750200764,None,None,347.061855592074,None,,,,,,,,,,,,,,,,,,,,,,,,,,,,,,,,,,,,,,,,,,,,,,,06_JM,6,33,M,2022-11-25_13h46.28.630,dynamic target,2022.1.3,120.09151132274278,
0,6,1,2,mix,0,47,47,47,,,,,,,None,348.0859676670334,None,347.09517051650164,None,347.5863945355695,None,1,[0.008653468699776568],[0.5175901266684377],348.0859676670334,None,[2 2 2 0 0 3 2 1],space,0,5.848057690035603,0.002567368898780842,None,348.1026328584221,None,1,353.9559318370166,None,None,354.45550342906,None,,,,,,,,,,,,,,,,,,,,,,,,,,,,,,,,,,,,,,,,,,,,,,,06_JM,6,33,M,2022-11-25_13h46.28.630,dynamic target,2022.1.3,120.09151132274278,
1,5,3,2,mix,0,48,48,48,,,,,,,None,355.4879823197528,None,354.4971450159974,None,354.9883889192497,None,1,[0.008659241527311679],[0.5090357581775606],355.4879823197528,None,[3 3 2 0 0 3 3 1],space,0,3.3491926920996775,0.002671279797141324,None,355.49628743037374,None,1,358.84342423612634,None,None,359.3429775475491,None,,,,,,,,,,,,,,,,,,,,,,,,,,,,,,,,,,,,,,,,,,,,,,,06_JM,6,33,M,2022-11-25_13h46.28.630,dynamic target,2022.1.3,120.09151132274278,
1,4,3,2,mix,0,49,49,49,,,,,,,None,360.3754246235476,None,359.3929688883072,None,359.8758559820608,None,1,[0.008623321710729215],[0.5173957748038447],360.3754246235476,None,[1 1 2 3 0 1 1 1],space,0,3.9409735966119115,0.002546522576267307,None,360.39209173921154,None,1,364.3303943226165,None,None,364.8299380126594,None,,,,,,,,,,,,,,,,,,,,,,,,,,,,,,,,,,,,,,,,,,,,,,,06_JM,6,33,M,2022-11-25_13h46.28.630,dynamic target,2022.1.3,120.09151132274278,
0,3,3,2,mix,0,50,50,50,,,,,,,None,365.8623854093703,None,364.8799136384978,None,365.36281452289495,None,1,[0.008636470928649942],[0.5171228483386585],365.8623854093703,None,[1 1 3 1 1 3 3 2],space,0,3.687075975787593,0.0029887853197578806,None,365.8790403379544,None,1,369.5675484981666,None,None,370.06712009021004,None,,,,,,,,,,,,,,,,,,,,,,,,,,,,,,,,,,,,,,,,,,,,,,,06_JM,6,33,M,2022-11-25_13h46.28.630,dynamic target,2022.1.3,120.09151132274278,
0,2,1,2,mix,0,51,51,51,,,,,,,None,371.099568449059,None,370.1254422627435,None,370.5999892240552,None,1,[0.008640640193334548],[0.5172649240421379],371.099568449059,None,[2 0 1 0 3 0 3 2],space,0,2.5927402743118364,0.002908607156314247,None,371.116199324194,None,1,373.7139862144877,None,None,374.21356454149674,None,,,,,,,,,,,,,,,,,,,,,,,,,,,,,,,,,,,,,,,,,,,,,,,06_JM,6,33,M,2022-11-25_13h46.28.630,dynamic target,2022.1.3,120.09151132274278,
1,1,3,2,mix,0,52,52,52,,,,,,,None,375.24601161749524,None,374.27190114609857,None,374.74642886465153,None,1,[0.008629415250652528],[0.5176484963703842],375.24601161749524,None,[1 2 2 1 0 0 0 2],space,0,2.429748974604081,0.0025875737965179724,None,375.26265884897566,None,1,377.693910564788,None,None,378.19348792965894,None,,,,,,,,,,,,,,,,,,,,,,,,,,,,,,,,,,,,,,,,,,,,,,,06_JM,6,33,M,2022-11-25_13h46.28.630,dynamic target,2022.1.3,120.09151132274278,
1,8,2,2,mix,0,53,53,53,,,,,,,None,379.2259285914042,None,378.25181876143324,None,378.7263564220784,None,1,[0.008594136859755963],[0.5173537614464294],379.2259285914042,None,[1 1 2 2 0 1 3 3],space,0,4.833809068457413,0.002564482484558539,None,379.2425844821264,None,1,384.0800896455994,None,None,384.57966027550475,None,,,,,,,,,,,,,,,,,,,,,,,,,,,,,,,,,,,,,,,,,,,,,,,06_JM,6,33,M,2022-11-25_13h46.28.630,dynamic target,2022.1.3,120.09151132274278,
0,7,3,2,mix,0,54,54,54,,,,,,,None,385.6121092757794,None,384.62961762072246,None,385.11254672783343,None,1,[0.00859606113499467],[0.5174656901608614],385.6121092757794,None,[3 1 3 3 1 0 1 0],space,0,5.5512326811194725,0.0025757074281500536,None,385.62876228008736,None,1,391.1823241789116,None,None,391.6819246350936,None,,,,,,,,,,,,,,,,,,,,,,,,,,,,,,,,,,,,,,,,,,,,,,,06_JM,6,33,M,2022-11-25_13h46.28.630,dynamic target,2022.1.3,120.09151132274278,
0,6,1,2,mix,0,55,55,55,,,,,,,None,392.7143531097581,None,391.7235341507658,None,392.2147671497887,None,1,[0.00862749097541382],[0.5171414496726356],392.7143531097581,None,[3 3 0 2 2 2 0 2],space,0,3.009464669255067,0.0029156628361306502,None,392.73101349045737,None,1,395.7450837958013,None,None,396.24465346356857,None,,,,,,,,,,,,,,,,,,,,,,,,,,,,,,,,,,,,,,,,,,,,,,,06_JM,6,33,M,2022-11-25_13h46.28.630,dynamic target,2022.1.3,120.09151132274278,
0,5,4,2,mix,0,56,56,56,,,,,,,None,397.2771348558208,None,396.2946175437519,397.2937538645874,396.7692004248802,None,2,"[0.009247749238966207, 0.8418219557315751]","[0.45813994360560173, 1.3499741505602287]",397.2771348558208,None,[3 2 1 3 2 2 0 1],space,0,2.9340000207694175,0.0027671728794302908,None,398.1180447047773,None,1,401.0571955731393,None,None,401.5567787108378,None,,,,,,,,,,,,,,,,,,,,,,,,,,,,,,,,,,,,,,,,,,,,,,,06_JM,6,33,M,2022-11-25_13h46.28.630,dynamic target,2022.1.3,120.09151132274278,
0,4,1,2,mix,0,57,57,57,,,,,,,None,402.58921071334225,None,401.6067254725385,402.6058640383626,402.0896475239706,None,2,"[0.008649620147480164, 0.8255390538206484]","[0.45814764070928504, 1.3332464202057963]",402.58921071334225,None,[1 1 0 3 3 3 0 3],space,0,2.7819482295253692,0.0026080994048243156,None,403.4218182739505,None,1,406.2027785902501,None,None,406.70231779031593,None,,,,,,,,,,,,,,,,,,,,,,,,,,,,,,,,,,,,,,,,,,,,,,,06_JM,6,33,M,2022-11-25_13h46.28.630,dynamic target,2022.1.3,120.09151132274278,
1,3,4,2,mix,0,58,58,58,,,,,,,None,407.7347950133035,None,406.76068325905635,None,407.23522380611485,None,1,[0.009696105522380094],[0.5176921132915595],407.7347950133035,None,[3 0 1 0 2 1 0 1],space,0,2.595474028933495,0.002430103885671997,None,407.75144801761144,None,1,410.3492198344102,None,None,410.8487971992802,None,,,,,,,,,,,,,,,,,,,,,,,,,,,,,,,,,,,,,,,,,,,,,,,06_JM,6,33,M,2022-11-25_13h46.28.630,dynamic target,2022.1.3,120.09151132274278,
1,2,2,2,mix,0,59,59,59,,,,,,,None,411.8812606316242,None,410.8987529409351,None,411.38167499236715,None,1,[0.008707348424650263],[0.5174916678852242],411.8812606316242,None,[3 2 1 1 3 1 1 1],space,0,3.0880617181855996,0.0026372842557975673,None,411.8978931103229,None,1,414.9869399395011,None,space,415.50314747393895,None,2.288934313161917,,,,,,,,,,,,,,,,,,,,,,,,,,,,,,,,,,,,,,,,,,,,,,06_JM,6,33,M,2022-11-25_13h46.28.630,dynamic target,2022.1.3,120.09151132274278,
0,1,3,2,mix,0,60,60,60,,,,,,,None,418.8335969591308,None,417.8594550578955,None,418.3340312040582,None,1,[0.008645771596093255],[0.5171295833042677],418.8335969591308,None,[2 0 1 3 2 0 3 3],space,0,3.8003224986214263,0.002959600468784629,None,418.8502685647727,None,1,422.65533139879517,None,None,423.1548994629987,None,,,,,,,,,,,,,,,,,,,,,,,,,,,,,,,,,,,,,,,,,,,,,,,06_JM,6,33,M,2022-11-25_13h46.28.630,dynamic target,2022.1.3,120.09151132274278,
0,8,3,2,mix,0,61,61,61,,,,,,,None,424.18735167039995,None,423.204860015343,None,423.68775159907364,None,1,[0.008664372930070385],[0.51715395746578],424.18735167039995,None,[0 3 2 0 3 2 3 1],space,0,3.5338369063165374,0.0025859702327579726,None,424.20400948539736,None,1,427.7426332304485,None,None,428.2421990496644,None,,,,,,,,,,,,,,,,,,,,,,,,,,,,,,,,,,,,,,,,,,,,,,,06_JM,6,33,M,2022-11-25_13h46.28.630,dynamic target,2022.1.3,120.09151132274278,
1,7,4,2,mix,0,62,62,62,,,,,,,None,429.27465061564,None,428.3005260328873,None,428.77508004987703,None,1,[0.008685860677360324],[0.5178752402134705],429.27465061564,None,[1 3 0 1 2 3 3 3],space,0,2.158029672577868,0.002098166291943926,None,429.29132831482184,None,1,431.44778509430216,None,None,431.94735828990935,None,,,,,,,,,,,,,,,,,,,,,,,,,,,,,,,,,,,,,,,,,,,,,,,06_JM,6,33,M,2022-11-25_13h46.28.630,dynamic target,2022.1.3,120.09151132274278,
1,6,2,2,mix,0,63,63,63,,,,,,,None,432.9798383993102,None,432.01400872851536,None,432.4802341587192,None,1,[0.009726893936203851],[0.5174195075387615],432.9798383993102,None,[1 0 2 1 1 1 3 0],space,0,2.597186313767452,0.002648829911777284,None,432.99646350161765,None,1,435.5942500711981,None,None,436.09381300399974,None,,,,,,,,,,,,,,,,,,,,,,,,,,,,,,,,,,,,,,,,,,,,,,,06_JM,6,33,M,2022-11-25_13h46.28.630,dynamic target,2022.1.3,120.09151132274278,
0,5,3,2,mix,0,64,64,64,,,,,,,None,437.12624564792986,None,436.1521306865561,None,436.62667764786784,None,1,[0.008664052217682183],[0.5171331111441759],437.12624564792986,None,[2 3 0 0 3 2 1 2],space,0,2.4989186752127353,0.0029634490219905274,None,437.1429336099163,None,1,439.64077232737327,None,None,440.1403355808873,None,,,,,,,,,,,,,,,,,,,,,,,,,,,,,,,,,,,,,,,,,,,,,,,06_JM,6,33,M,2022-11-25_13h46.28.630,dynamic target,2022.1.3,120.09151132274278,
1,4,3,2,mix,0,65,65,65,,,,,,,None,441.17277848762205,None,440.1986574327084,None,440.6732178639513,None,1,[0.008628773825876124],[0.5169493427956695],441.17277848762205,None,[3 0 1 2 2 1 3 0],space,0,4.516603091399702,0.002823939018526289,None,441.18942315340064,None,1,445.7105369499459,None,None,446.2101370854146,None,,,,,,,,,,,,,,,,,,,,,,,,,,,,,,,,,,,,,,,,,,,,,,,06_JM,6,33,M,2022-11-25_13h46.28.630,dynamic target,2022.1.3,120.09151132274278,
0,3,4,2,mix,0,66,66,66,,,,,,,None,447.2342473002412,None,446.2434285978188,None,446.72634776283667,None,1,[0.00856463129639451],[0.5164961758227946],447.2342473002412,None,[3 2 2 2 0 1 1 1],space,0,2.9910589703195,0.002844464627742127,None,447.2425844821264,None,1,450.2316622921462,None,None,450.7312457505571,None,,,,,,,,,,,,,,,,,,,,,,,,,,,,,,,,,,,,,,,,,,,,,,,06_JM,6,33,M,2022-11-25_13h46.28.630,dynamic target,2022.1.3,120.09151132274278,
1,2,1,2,mix,0,67,67,67,,,,,,,None,451.76369827867074,None,450.7895695266543,451.78866351342003,451.26412161936787,None,2,"[0.008648658009406063, 0.9755440569379061]","[0.36658001010800945, 1.483102612653056]",451.76369827867074,None,[0 1 1 2 0 2 0 0],space,0,3.2628388870371055,0.0027899434771825327,None,452.74620853506167,None,1,456.0100585108157,None,None,456.50961887791647,None,,,,,,,,,,,,,,,,,,,,,,,,,,,,,,,,,,,,,,,,,,,,,,,06_JM,6,33,M,2022-11-25_13h46.28.630,dynamic target,2022.1.3,120.09151132274278,
1,1,1,2,mix,0,68,68,68,,,,,,,None,457.5420755752948,None,456.5595829580998,None,457.0425094995089,None,1,[0.008712800539797172],[0.5174467681144961],457.5420755752948,None,[2 0 3 2 0 0 3 3],space,0,2.9461357874133682,0.00274536441975215,None,457.5587276174647,None,0,460.5145170580645,None,None,461.01409698863637,None,,,,,,,,,,,,,,,,,,,,,,,,,,,,,,,,,,,,,,,,,,,,,,,06_JM,6,33,M,2022-11-25_13h46.28.630,dynamic target,2022.1.3,120.09151132274278,
1,8,3,2,mix,0,69,69,69,,,,,,,None,462.0382097050215,None,461.0473910667415,None,461.53862406576445,None,1,[0.008562707020246307],[0.5176783226470434],462.0382097050215,None,[2 1 0 2 0 2 1 2],space,0,1.6967675913329003,0.002217792111878225,None,462.0548633507542,None,1,463.7617316687065,None,None,464.2613032607499,None,,,,,,,,,,,,,,,,,,,,,,,,,,,,,,,,,,,,,,,,,,,,,,,06_JM,6,33,M,2022-11-25_13h46.28.630,dynamic target,2022.1.3,120.09151132274278,
1,7,2,2,mix,0,70,70,70,,,,,,,None,465.29375643028834,None,464.3196870101119,None,464.79420831441166,None,1,[0.008676239298438304],[0.5171504296267813],465.29375643028834,None,[1 0 2 3 2 2 3 0],space,0,3.289849627062722,0.002971787548631255,None,465.31041200029813,None,1,468.59925671636483,None,None,469.0988222148674,None,,,,,,,,,,,,,,,,,,,,,,,,,,,,,,,,,,,,,,,,,,,,,,,06_JM,6,33,M,2022-11-25_13h46.28.630,dynamic target,2022.1.3,120.09151132274278,
0,3,2,0,mix,0,71,71,71,,,,,,,None,470.1312638387508,None,469.1571463116761,None,469.63169648011444,None,1,[0.008645450883705053],[0.5172969953073334],470.1312638387508,None,[3 0 2 3 2 1 3 1],space,0,3.011778931730987,0.002527921243199671,None,470.14793352011657,None,1,473.1619996561958,None,None,473.6615722103773,None,,,,,,,,,,,,,,,,,,,,,,,,,,,,,,,,,,,,,,,,,,,,,,,06_JM,6,33,M,2022-11-25_13h46.28.630,dynamic target,2022.1.3,120.09151132274278,
0,2,2,2,mix,0,72,72,72,,,,,,,None,474.69401768281296,None,473.7199072114163,None,474.19446379410783,None,1,[0.008003704872862727],[0.5167835343563638],474.69401768281296,None,[0 2 3 1 2 1 2 2],space,0,3.520555554088787,0.0025959123249776894,None,474.71067645994844,None,1,478.23265072853064,None,None,478.7322290555397,None,,,,,,,,,,,,,,,,,,,,,,,,,,,,,,,,,,,,,,,,,,,,,,,06_JM,6,33,M,2022-11-25_13h46.28.630,dynamic target,2022.1.3,120.09151132274278,
0,7,2,0,mix,0,73,73,73,,,,,,,None,479.7646546437909,None,478.7905454552456,None,479.2651145457303,None,1,[0.008624925274489215],[0.5172068750534891],479.7646546437909,None,[1 1 3 0 1 0 3 3],space,0,2.81777632241392,0.0026234936121909413,None,479.78132881513375,None,1,482.60390063552404,None,None,483.10347928324546,None,,,,,,,,,,,,,,,,,,,,,,,,,,,,,,,,,,,,,,,,,,,,,,,06_JM,6,33,M,2022-11-25_13h46.28.630,dynamic target,2022.1.3,120.09151132274278,
1,6,2,2,mix,0,74,74,74,,,,,,,None,484.1359218692678,None,483.1617658566747,None,483.6363554727686,None,1,[0.008649940859868366],[0.5168925766565735],484.1359218692678,None,[0 3 0 3 3 3 3 2],space,0,2.2071586811653106,0.002958638330710528,None,484.15257904283953,None,1,486.3590160022786,None,None,486.85858374576975,None,,,,,,,,,,,,,,,,,,,,,,,,,,,,,,,,,,,,,,,,,,,,,,,06_JM,6,33,M,2022-11-25_13h46.28.630,dynamic target,2022.1.3,120.09151132274278,
1,5,1,2,mix,0,75,75,75,,,,,,,None,487.8910048440439,None,486.90859048073526,None,487.39147340522413,None,1,[0.00862749097541382],[0.5175837124161262],487.8910048440439,None,[1 0 1 2 1 0 1 0],space,0,2.499426042624691,0.0024936049894677126,None,487.9076844675019,None,1,490.40554114486713,None,None,490.90511209548487,None,,,,,,,,,,,,,,,,,,,,,,,,,,,,,,,,,,,,,,,,,,,,,,,06_JM,6,33,M,2022-11-25_13h46.28.630,dynamic target,2022.1.3,120.09151132274278,
1,4,1,2,mix,0,76,76,76,,,,,,,None,491.9375620578976,None,490.96340572459303,491.9625414040029,491.4379853985947,None,3,"[0.008641281619929941, 0.7253660614178443, 0.9420376029174804]","[0.41650246179051464, 0.9086482090124264, 1.4497933969114456]",491.9375620578976,None,[0 3 1 1 2 2 2 1],space,0,4.656183971282189,0.00274857154545316,None,492.88672525445327,None,1,497.54107719681724,None,None,498.0406539202634,None,,,,,,,,,,,,,,,,,,,,,,,,,,,,,,,,,,,,,,,,,,,,,,,06_JM,6,33,M,2022-11-25_13h46.28.630,dynamic target,2022.1.3,120.09151132274278,
0,3,3,2,mix,0,77,77,77,,,,,,,None,499.06477593731506,None,498.08229711076365,None,498.56522140718425,None,1,[0.00904185171748395],[0.5177408616136745],499.06477593731506,None,[1 0 3 0 2 1 1 2],space,0,4.3011127345880595,0.002359547102059878,None,499.0814321487496,None,1,503.38605496501714,None,None,503.8856470826698,None,,,,,,,,,,,,,,,,,,,,,,,,,,,,,,,,,,,,,,,,,,,,,,,06_JM,6,33,M,2022-11-25_13h46.28.630,dynamic target,2022.1.3,120.09151132274278,
1,2,3,2,mix,0,78,78,78,,,,,,,None,504.91809261924783,None,503.94397566945554,None,504.4101975718204,None,1,[0.00897353992331773],[0.5164641045575991],504.91809261924783,None,[3 1 1 2 1 1 0 3],space,0,2.968055214132619,0.0029191906751293573,None,504.9264243490179,None,0,507.9071924942982,None,None,508.40677114201964,None,,,,,,,,,,,,,,,,,,,,,,,,,,,,,,,,,,,,,,,,,,,,,,,06_JM,6,33,M,2022-11-25_13h46.28.630,dynamic target,2022.1.3,120.09151132274278,
0,1,1,2,mix,0,79,79,79,,,,,,,None,509.430881998271,None,508.4400677858257,None,508.931315216917,None,1,[0.008678163573677011],[0.5088090143344743],509.430881998271,None,[3 1 0 3 1 2 2 1],space,0,3.927268262263169,0.0029708254123761435,None,509.439219821581,None,1,513.3775220842736,None,None,513.8770872620637,None,,,,,,,,,,,,,,,,,,,,,,,,,,,,,,,,,,,,,,,,,,,,,,,06_JM,6,33,M,2022-11-25_13h46.28.630,dynamic target,2022.1.3,120.09151132274278,
0,8,4,2,mix,0,80,80,80,,,,,,,None,514.9095003425209,None,513.9353937196765,None,514.4099499816557,None,1,[0.008663410791996284],[0.5178697880992331],514.9095003425209,None,[1 2 1 3 0 0 1 0],space,0,3.879418576433636,0.0021158054887564504,None,514.9261700238867,None,1,518.8061728205012,None,None,519.3057450539693,None,,,,,,,,,,,,,,,,,,,,,,,,,,,,,,,,,,,,,,,,,,,,,,,06_JM,6,33,M,2022-11-25_13h46.28.630,dynamic target,2022.1.3,120.09151132274278,
0,7,3,2,mix,0,81,81,81,,,,,,,None,520.3298603360554,None,519.3390230964424,None,519.830292015281,None,1,[0.008635188079097134],[0.5175307948293266],520.3298603360554,None,[1 1 0 0 3 2 2 0],space,0,2.7144571389226257,0.002633114992022456,None,520.3465261688698,None,1,523.060854583754,None,None,523.560431948624,None,,,,,,,,,,,,,,,,,,,,,,,,,,,,,,,,,,,,,,,,,,,,,,,06_JM,6,33,M,2022-11-25_13h46.28.630,dynamic target,2022.1.3,120.09151132274278,
1,6,1,2,mix,0,82,82,82,,,,,,,None,524.5928745346464,None,523.602081232666,None,524.0933126281252,None,1,[0.009206377307236835],[0.5175259841389561],524.5928745346464,None,[3 2 1 0 0 2 3 2],space,0,2.627309570052603,0.0026857118664338486,None,524.6095256146782,None,1,527.2406085714947,None,None,527.7401843328018,None,,,,,,,,,,,,,,,,,,,,,,,,,,,,,,,,,,,,,,,,,,,,,,,06_JM,6,33,M,2022-11-25_13h46.28.630,dynamic target,2022.1.3,120.09151132274278,
0,5,1,2,mix,0,83,83,83,,,,,,,None,528.7726246738357,None,527.790176635699,528.7892760745799,528.2730512216585,None,2,"[0.008665655780532688, 0.8338554535257572]","[0.36658161367176945, 1.341545180715002]",528.7726246738357,None,[0 2 0 1 2 0 3 0],space,0,2.103001154809135,0.002159101696634025,None,529.6135354849303,None,0,531.7200961111666,None,None,532.2196584025435,None,,,,,,,,,,,,,,,,,,,,,,,,,,,,,,,,,,,,,,,,,,,,,,,06_JM,6,33,M,2022-11-25_13h46.28.630,dynamic target,2022.1.3,120.09151132274278,
0,4,2,2,mix,0,84,84,84,,,,,,,None,533.2437932481007,None,532.2612948580781,None,532.744237114407,None,1,[0.00865218584840477],[0.517225155673259],533.2437932481007,None,[1 1 2 0 0 3 2 1],space,0,3.0801542271083235,0.0027113688784083934,None,533.2604266889366,None,1,536.349454275356,None,None,536.8490309988022,None,,,,,,,,,,,,,,,,,,,,,,,,,,,,,,,,,,,,,,,,,,,,,,,06_JM,6,33,M,2022-11-25_13h46.28.630,dynamic target,2022.1.3,120.09151132274278,
0,3,2,2,mix,0,85,85,85,,,,,,,None,537.8814748676741,None,536.8989825711915,None,537.381888266279,None,1,[0.008643205895168649],[0.5174320153328154],537.8814748676741,None,[3 3 2 3 0 3 0 0],space,0,2.714317949632459,0.0026831461655092426,None,537.8981265891316,None,1,540.6124627011186,None,None,541.1120410281276,None,,,,,,,,,,,,,,,,,,,,,,,,,,,,,,,,,,,,,,,,,,,,,,,06_JM,6,33,M,2022-11-25_13h46.28.630,dynamic target,2022.1.3,120.09151132274278,
1,2,1,2,mix,0,86,86,86,,,,,,,None,542.1444954805174,None,541.1620221060812,None,541.6449185005013,None,1,[0.008656675826387072],[0.5175356055178781],542.1444954805174,None,[2 2 3 1 2 3 1 2],space,0,2.994772181371445,0.0025320905069747823,None,542.161155219791,None,1,545.1585705965517,None,None,545.6581245493992,None,,,,,,,,,,,,,,,,,,,,,,,,,,,,,,,,,,,,,,,,,,,,,,,06_JM,6,33,M,2022-11-25_13h46.28.630,dynamic target,2022.1.3,120.09151132274278,
0,3,4,1,mix,0,87,87,87,,,,,,,None,546.6905902267308,None,545.7164585883002,None,546.191017095267,None,1,[0.009216640111844754],[0.5174733872645447],546.6905902267308,None,[0 2 0 0 3 1 1 0],space,0,4.192430594177495,0.0025635203473939328,None,546.707234571797,None,1,550.9036406017085,None,None,551.4032048173606,None,,,,,,,,,,,,,,,,,,,,,,,,,,,,,,,,,,,,,,,,,,,,,,,06_JM,6,33,M,2022-11-25_13h46.28.630,dynamic target,2022.1.3,120.09151132274278,
1,2,4,2,mix,0,88,88,88,,,,,,,None,552.4356506105087,None,551.4531615211527,None,551.936067857665,None,1,[0.00911818132863118],[0.5175991066234928],552.4356506105087,None,[3 1 0 2 2 0 0 1],space,0,3.4563020576788404,0.0025221484147550655,None,552.4523058598052,None,1,555.9076931267427,None,None,556.407248683154,None,,,,,,,,,,,,,,,,,,,,,,,,,,,,,,,,,,,,,,,,,,,,,,,06_JM,6,33,M,2022-11-25_13h46.28.630,dynamic target,2022.1.3,120.09151132274278,
0,1,3,2,mix,0,89,89,89,,,,,,,None,557.4397002491296,None,556.457201859107,None,556.940118458424,None,1,[0.007782733857311541],[0.5164948929723323],557.4397002491296,None,[2 1 1 3 1 0 3 3],space,0,4.5307676862630615,0.0021828344324603677,None,557.4563644783802,None,1,561.9857905053659,None,None,562.4853656252483,None,,,,,,,,,,,,,,,,,,,,,,,,,,,,,,,,,,,,,,,,,,,,,,,06_JM,6,33,M,2022-11-25_13h46.28.630,dynamic target,2022.1.3,120.09151132274278,
0,2,2,1,mix,0,90,90,90,,,,,,,None,563.5178248883276,None,562.5436855527932,None,563.0182386076458,None,1,[0.00868040856312291],[0.5175083449439626],563.5178248883276,None,[0 0 1 2 3 3 3 0],space,0,2.6765052868704515,0.002584687381386175,None,563.5344701955319,None,1,566.2154964503525,None,None,566.7150754187862,None,,,,,,,,,,,,,,,,,,,,,,,,,,,,,,,,,,,,,,,,,,,,,,,06_JM,6,33,M,2022-11-25_13h46.28.630,dynamic target,2022.1.3,120.09151132274278,
0,1,4,2,mix,0,91,91,91,,,,,,,None,567.7475138355439,None,566.7733587850889,None,567.2479423076429,None,1,[0.00860632393960259],[0.5168832759900397],567.7475138355439,None,[0 3 0 1 2 3 0 3],space,0,5.230779809201522,0.003046192884539778,None,567.7641684434147,None,0,573.0013351267589,None,None,573.5009375072161,None,,,,,,,,,,,,,,,,,,,,,,,,,,,,,,,,,,,,,,,,,,,,,,,06_JM,6,33,M,2022-11-25_13h46.28.630,dynamic target,2022.1.3,120.09151132274278,
1,8,2,2,mix,0,92,92,92,,,,,,,None,574.5250319429797,None,573.5341918169524,None,574.0254552836768,None,1,[0.00859285400929366],[0.5177209774301446],574.5250319429797,None,[1 1 2 2 2 1 0 3],space,0,4.21260277838428,0.002362754228670383,None,574.5416945686675,None,1,578.7547391708167,None,None,579.2543091592963,None,,,,,,,,,,,,,,,,,,,,,,,,,,,,,,,,,,,,,,,,,,,,,,,06_JM,6,33,M,2022-11-25_13h46.28.630,dynamic target,2022.1.3,120.09151132274278,
0,7,3,2,mix,0,93,93,93,,,,,,,None,580.2867883065601,None,579.3043418719872,None,579.7871904802223,None,1,[0.008624604561191518],[0.5175317569664912],580.2867883065601,None,[0 2 0 3 1 0 3 0],space,0,2.9467938897696513,0.002635680692947062,None,580.3034162952817,None,1,583.2508809976471,None,None,583.75045130684,None,,,,,,,,,,,,,,,,,,,,,,,,,,,,,,,,,,,,,,,,,,,,,,,06_JM,6,33,M,2022-11-25_13h46.28.630,dynamic target,2022.1.3,120.09151132274278,
1,6,2,2,mix,0,94,94,94,,,,,,,None,584.7829044763794,None,583.8087244103381,None,584.2833278170756,None,1,[0.009283989767936873],[0.5176292536116307],584.7829044763794,None,[2 2 3 2 3 1 3 1],space,0,2.865990979237722,0.0024673065527167637,None,584.7995728748938,None,1,587.6637622929156,None,None,588.1633393370741,None,,,,,,,,,,,,,,,,,,,,,,,,,,,,,,,,,,,,,,,,,,,,,,,06_JM,6,33,M,2022-11-25_13h46.28.630,dynamic target,2022.1.3,120.09151132274278,
0,5,4,2,mix,0,95,95,95,,,,,,,None,589.1957857716479,None,588.2216380975842,None,588.6962145644593,None,1,[0.008692274930581334],[0.5171305454423418],589.1957857716479,None,[2 3 2 1 3 2 2 2],space,0,2.1015710971068984,0.0027623621899692807,None,589.2124554530128,None,1,591.3189670102138,None,None,591.8185264151764,None,,,,,,,,,,,,,,,,,,,,,,,,,,,,,,,,,,,,,,,,,,,,,,,06_JM,6,33,M,2022-11-25_13h46.28.630,dynamic target,2022.1.3,120.09151132274278,
1,4,1,2,mix,0,96,96,96,,,,,,,None,592.8509600212437,None,591.8768415320319,None,592.3514045289758,None,1,[0.008612417480435397],[0.5169207993694727],592.8509600212437,None,[3 3 1 0 1 3 0 0],space,0,2.5901107513009265,0.002962166169709235,None,592.8676290611847,None,1,595.457086723266,None,None,595.9566451660905,None,,,,,,,,,,,,,,,,,,,,,,,,,,,,,,,,,,,,,,,,,,,,,,,06_JM,6,33,M,2022-11-25_13h46.28.630,dynamic target,2022.1.3,120.09151132274278,
1,3,3,2,mix,0,97,97,97,,,,,,,None,596.9890929476571,None,596.0150003720264,None,596.481194693104,None,1,[0.008638395204798144],[0.5164682738213742],596.9890929476571,None,[2 2 0 3 3 3 3 3],space,0,2.3161371600635903,0.002945809825178003,None,596.9974185838873,None,1,599.3121111359133,None,None,599.8116920286232,None,,,,,,,,,,,,,,,,,,,,,,,,,,,,,,,,,,,,,,,,,,,,,,,06_JM,6,33,M,2022-11-25_13h46.28.630,dynamic target,2022.1.3,120.09151132274278,
1,2,1,2,mix,0,98,98,98,,,,,,,None,600.8357919165019,None,599.8616336589212,None,600.3362178228999,None,1,[0.009382127838762244],[0.5175756945991452],600.8357919165019,None,[1 0 1 1 3 1 0 0],space,0,4.524350226153729,0.002535618346882984,None,600.8524452415222,None,1,605.3818869834286,None,None,605.8814704418394,None,,,,,,,,,,,,,,,,,,,,,,,,,,,,,,,,,,,,,,,,,,,,,,,06_JM,6,33,M,2022-11-25_13h46.28.630,dynamic target,2022.1.3,120.09151132274278,
0,1,3,2,mix,0,99,99,99,,,,,,,None,606.9139117450104,None,605.939837834856,None,606.4143350857075,None,1,[0.008687784953508526],[0.5175051378164426],606.9139117450104,None,[2 0 3 0 3 3 1 1],space,0,2.270482752317548,0.002652357750775991,None,606.9305775778239,None,0,609.2119397470733,None,None,609.7115119805414,None,,,,,,,,,,,,,,,,,,,,,,,,,,,,,,,,,,,,,,,,,,,,,,,06_JM,6,33,M,2022-11-25_13h46.28.630,dynamic target,2022.1.3,120.09151132274278,
0,8,1,2,mix,0,100,100,100,,,,,,,None,610.7356279040532,None,609.7448121521875,610.743941417345,610.2360467547733,None,1,[0.09141785779320344],[0.6002024979661655],610.7356279040532,None,[2 3 3 2 3 1 3 3],space,0,3.7894586783431805,0.002632152853948355,None,610.8355420813486,None,1,614.6322859499642,None,None,615.131865880536,None,,,,,,,,,,,,,,,,,,,,,,,,,,,,,,,,,,,,,,,,,,,,,,,06_JM,6,33,M,2022-11-25_13h46.28.630,dynamic target,2022.1.3,120.09151132274278,
0,7,4,2,mix,0,101,101,101,,,,,,,None,616.1643052594309,None,615.1901870909314,None,615.6647366179441,None,1,[0.008655072263536567],[0.5171529953286154],616.1643052594309,None,[0 3 2 0 0 0 3 3],space,0,2.683602016370969,0.0029214356636657612,None,616.180970771532,None,1,618.8619906120994,None,None,619.3615769569244,None,,,,,,,,,,,,,,,,,,,,,,,,,,,,,,,,,,,,,,,,,,,,,,,06_JM,6,33,M,2022-11-25_13h46.28.630,dynamic target,2022.1.3,120.09151132274278,
1,6,2,2,mix,0,102,102,102,,,,,,,None,620.3940484070845,None,619.4198978466075,None,619.894445449344,None,1,[0.008697406333340041],[0.5176715876823437],620.3940484070845,None,[3 1 0 1 1 0 3 2],space,0,4.260860410704481,0.00237750701035111,None,620.4106603601731,None,1,624.6736646166719,None,None,625.1732416608295,None,,,,,,,,,,,,,,,,,,,,,,,,,,,,,,,,,,,,,,,,,,,,,,,06_JM,6,33,M,2022-11-25_13h46.28.630,dynamic target,2022.1.3,120.09151132274278,
1,5,2,2,mix,0,103,103,103,,,,,,,None,626.2056848882767,None,625.2316019981681,None,625.7061156053642,None,1,[0.008620756009804609],[0.5169682648420348],626.2056848882767,None,[3 3 3 3 1 2 1 2],space,0,2.1616017700634984,0.002961524744932831,None,626.222356814631,None,1,628.3871511608513,None,None,628.8867070379749,None,,,,,,,,,,,,,,,,,,,,,,,,,,,,,,,,,,,,,,,,,,,,,,,06_JM,6,33,M,2022-11-25_13h46.28.630,dynamic target,2022.1.3,120.09151132274278,
0,4,4,2,mix,0,104,104,104,,,,,,,None,629.9191547553992,None,628.9366817016753,None,629.419600866694,None,1,[0.007803259466527379],[0.5165699397321077],629.9191547553992,None,[0 0 2 0 0 1 2 2],space,0,2.9761888076291143,0.002622852187414537,None,629.9358366238448,None,1,632.916610862666,None,None,633.4161689847781,None,,,,,,,,,,,,,,,,,,,,,,,,,,,,,,,,,,,,,,,,,,,,,,,06_JM,6,33,M,2022-11-25_13h46.28.630,dynamic target,2022.1.3,120.09151132274278,
0,1,2,0,mix,0,105,105,105,,,,,,,None,634.4486231164547,None,633.4661304992596,None,633.9490438914509,None,1,[0.007811918708284793],[0.5167450488379473],634.4486231164547,None,[1 2 2 3 3 1 2 1],space,0,2.6544886842184496,0.0025564646675775293,None,634.4652706686475,None,1,637.1213066731325,None,None,637.6208926972452,None,,,,,,,,,,,,,,,,,,,,,,,,,,,,,,,,,,,,,,,,,,,,,,,06_JM,6,33,M,2022-11-25_13h46.28.630,dynamic target,2022.1.3,120.09151132274278,
1,8,2,2,mix,0,106,106,106,,,,,,,None,638.6533471496341,None,637.6792017205589,None,638.1537733767454,None,1,[0.008612096768047195],[0.5172152135819488],638.6533471496341,None,[3 0 3 0 2 3 1 0],space,0,2.8983659590330717,0.002759155062449281,None,638.6700004746544,None,1,641.5675141819138,None,None,642.0670655690594,None,,,,,,,,,,,,,,,,,,,,,,,,,,,,,,,,,,,,,,,,,,,,,,,06_JM,6,33,M,2022-11-25_13h46.28.630,dynamic target,2022.1.3,120.09151132274278,
0,7,3,2,mix,0,107,107,107,,,,,,,None,643.099525152852,None,642.1253710645351,None,642.5999523421006,None,1,[0.008671749321365496],[0.5173819841593286],643.099525152852,None,[1 0 0 1 1 1 1 2],space,0,2.8190133111011164,0.002710406741243787,None,643.1161858542628,None,1,645.9387650510444,None,None,646.438327983846,None,,,,,,,,,,,,,,,,,,,,,,,,,,,,,,,,,,,,,,,,,,,,,,,06_JM,6,33,M,2022-11-25_13h46.28.630,dynamic target,2022.1.3,120.09151132274278,
0,6,4,2,mix,0,108,108,108,,,,,,,None,647.4707737769941,None,646.4882866119151,647.4874277434401,646.9712195675766,None,2,"[0.18348740369037841, 0.8422642184750657]","[0.5081412905992693, 1.3499189879848927]",647.4707737769941,None,[3 3 3 0 3 2 1 0],space,0,1.6148935005521707,0.0026606962801452028,None,648.3200702617269,None,1,649.9353295771471,None,None,650.4349075834427,None,,,,,,,,,,,,,,,,,,,,,,,,,,,,,,,,,,,,,,,,,,,,,,,06_JM,6,33,M,2022-11-25_13h46.28.630,dynamic target,2022.1.3,120.09151132274278,
0,5,4,2,mix,0,109,109,109,,,,,,,None,651.4673456794872,None,650.4932464330341,None,650.9677680580462,None,1,[0.008634867365799437],[0.5172668483182861],651.4673456794872,None,[1 2 0 1 1 3 0 2],space,0,3.3309521601795495,0.0028152797767688753,None,651.4839974009446,None,1,654.8144751088503,None,None,655.3140502287326,None,,,,,,,,,,,,,,,,,,,,,,,,,,,,,,,,,,,,,,,,,,,,,,,06_JM,6,33,M,2022-11-25_13h46.28.630,dynamic target,2022.1.3,120.09151132274278,
0,4,1,2,mix,0,110,110,110,,,,,,,None,656.346497946156,None,655.3640040461105,None,655.8469661866238,None,1,[0.008152515541951288],[0.5169509463594295],656.346497946156,None,[3 0 2 2 2 1 1 0],space,0,6.274637584687298,0.0024246517696155934,None,656.3631509504639,None,1,662.6410901536083,None,None,663.14064699287,None,,,,,,,,,,,,,,,,,,,,,,,,,,,,,,,,,,,,,,,,,,,,,,,06_JM,6,33,M,2022-11-25_13h46.28.630,dynamic target,2022.1.3,120.09151132274278,
1,8,2,0,mix,0,111,111,111,,,,,,,None,664.1731107459264,None,663.182281203417,None,663.6735315209226,None,1,[0.008745833943066827],[0.5176661355662873],664.1731107459264,None,[2 0 3 0 2 0 2 1],space,0,3.792048112271914,0.0025089991968343384,None,664.1897653537972,None,0,667.9948310742338,None,None,668.4944029869896,None,,,,,,,,,,,,,,,,,,,,,,,,,,,,,,,,,,,,,,,,,,,,,,,06_JM,6,33,M,2022-11-25_13h46.28.630,dynamic target,2022.1.3,120.09151132274278,
0,6,1,0,mix,0,112,112,112,,,,,,,None,669.5185311617236,None,668.5276932165425,None,669.0189579661173,None,1,[0.008623642423117417],[0.5088946446112459],669.5185311617236,None,[2 0 2 0 3 1 3 0],space,0,2.5344424117974995,0.002658130578311102,None,669.5268574393785,None,1,672.0746686396906,None,None,672.5742334967683,None,,,,,,,,,,,,,,,,,,,,,,,,,,,,,,,,,,,,,,,,,,,,,,,06_JM,6,33,M,2022-11-25_13h46.28.630,dynamic target,2022.1.3,120.09151132274278,
1,5,3,2,mix,0,113,113,113,,,,,,,None,673.6066821763307,None,672.632531936566,None,673.1071035927516,None,1,[0.010112069828210224],[0.5177136010388494],673.6066821763307,None,[1 0 2 0 1 2 2 0],space,0,3.013862922525732,0.0022126607091195183,None,673.6233342185005,None,1,676.6374231251784,None,None,677.1369870201181,None,,,,,,,,,,,,,,,,,,,,,,,,,,,,,,,,,,,,,,,,,,,,,,,06_JM,6,33,M,2022-11-25_13h46.28.630,dynamic target,2022.1.3,120.09151132274278,
1,4,3,2,mix,0,114,114,114,,,,,,,None,678.1694337754034,None,677.195279366375,None,677.6698606439395,None,1,[0.00864256446948275],[0.5172697347325084],678.1694337754034,None,[0 1 0 1 2 0 1 3],space,0,3.1551794992647046,0.0029018721916145296,None,678.1860947975274,None,1,681.3417113098676,None,None,681.8412809776348,None,,,,,,,,,,,,,,,,,,,,,,,,,,,,,,,,,,,,,,,,,,,,,,,06_JM,6,33,M,2022-11-25_13h46.28.630,dynamic target,2022.1.3,120.09151132274278,
1,3,1,2,mix,0,115,115,115,,,,,,,None,682.8737113765756,None,681.8996118094092,None,682.3741619778475,None,1,[0.008086448735411977],[0.5168996323345709],682.8737113765756,None,[1 1 2 1 1 0 2 1],space,0,2.7549679572011883,0.0026000815887528006,None,682.89037720939,None,1,685.6463520860434,None,None,686.1459256023629,None,,,,,,,,,,,,,,,,,,,,,,,,,,,,,,,,,,,,,,,,,,,,,,,06_JM,6,33,M,2022-11-25_13h46.28.630,dynamic target,2022.1.3,120.09151132274278,
1,2,1,2,mix,0,116,116,116,,,,,,,None,687.1783765269129,None,686.1958842304311,None,686.6787687584829,None,1,[0.00779941091514047],[0.516457690304378],687.1783765269129,None,[0 0 2 2 0 0 3 1],space,0,3.648901869870315,0.002228696342172043,None,687.1950446047149,None,1,690.8419111138483,None,None,691.3414641045576,None,,,,,,,,,,,,,,,,,,,,,,,,,,,,,,,,,,,,,,,,,,,,,,,06_JM,6,33,M,2022-11-25_13h46.28.630,dynamic target,2022.1.3,120.09151132274278,
1,1,2,2,mix,0,117,117,117,,,,,,,None,692.3739079734296,None,691.3914227326259,None,691.8743335591153,None,1,[0.008752889621064242],[0.517201102225954],692.3739079734296,None,[1 1 1 0 3 1 1 1],space,0,4.1663624286284175,0.002732856625698332,None,692.3905654677146,None,1,696.56198605798,None,None,697.0615544428967,None,,,,,,,,,,,,,,,,,,,,,,,,,,,,,,,,,,,,,,,,,,,,,,,06_JM,6,33,M,2022-11-25_13h46.28.630,dynamic target,2022.1.3,120.09151132274278,
1,8,3,2,mix,0,118,118,118,,,,,,,None,698.0940207616541,None,697.1198625040734,None,697.5944408952246,None,1,[0.008629415250652528],[0.5171815387529932],698.0940207616541,None,[3 0 2 3 2 3 0 0],space,0,3.965439481766225,0.0029910303082942846,None,698.1106497125129,None,1,702.0739290763222,None,None,702.5734923298362,None,,,,,,,,,,,,,,,,,,,,,,,,,,,,,,,,,,,,,,,,,,,,,,,06_JM,6,33,M,2022-11-25_13h46.28.630,dynamic target,2022.1.3,120.09151132274278,
0,7,1,2,mix,0,119,119,119,,,,,,,None,703.6059454993756,None,702.6318157852202,None,703.1063624258195,None,1,[0.008692274930581334],[0.5175285498398807],703.6059454993756,None,[3 3 0 2 3 3 1 1],space,0,2.2127416469620584,0.0024220860686909873,None,703.6225888823037,None,1,705.8373659741837,None,space,706.3452551846403,None,2.6803721192818557,,,,,,,,,,,,,,,,,,,,,,,,,,,,,,,,,,,,,,,,,,,,,,06_JM,6,33,M,2022-11-25_13h46.28.630,dynamic target,2022.1.3,120.09151132274278,
1,6,1,2,mix,0,120,120,120,,,,,,,None,None,None,709.0845793019753,None,709.559171483771,None,1,[0.008686822815434425],[0.5089430722218822],None,None,[2 3 0 2 3 1 1 3],space,0,3.8322488014200644,0.002773907844130008,None,710.0670696741818,None,1,713.8971083264705,None,None,714.3966831256396,None,,,,,,,,,,,,,,,,,,,,,,,,,,,,,,,,,,,,,,,,,,,,,,,06_JM,6,33,M,2022-11-25_13h46.28.630,dynamic target,2022.1.3,120.09151132274278,
0,5,2,2,mix,0,121,121,121,,,,,,,None,715.429133729478,None,714.4466805599386,715.4457870544984,714.9295538630477,None,2,"[0.009627793727304379, 0.7421178452214008]","[0.4332449449266278, 1.2498518307556878]",715.429133729478,None,[1 0 2 1 3 3 3 0],space,0,2.744803611210955,0.0028050169721609564,None,716.1784759478342,None,1,718.926148215427,None,None,719.425704413263,None,,,,,,,,,,,,,,,,,,,,,,,,,,,,,,,,,,,,,,,,,,,,,,,06_JM,6,33,M,2022-11-25_13h46.28.630,dynamic target,2022.1.3,120.09151132274278,
0,4,3,2,mix,0,122,122,122,,,,,,,None,720.4581695133122,None,719.4673267574417,None,719.9585770749472,None,1,[0.008670466469993698],[0.5090043283371415],720.4581695133122,None,[0 2 0 3 1 0 2 2],space,0,1.9125523623561094,0.0027957163047176437,None,720.4664784724846,None,1,722.38149250687,None,None,722.8810461390042,None,,,,,,,,,,,,,,,,,,,,,,,,,,,,,,,,,,,,,,,,,,,,,,,06_JM,6,33,M,2022-11-25_13h46.28.630,dynamic target,2022.1.3,120.09151132274278,
0,3,3,2,mix,0,123,123,123,,,,,,,None,723.9135204755785,None,722.93940487278,None,723.4139402884366,None,1,[0.008686822815434425],[0.5173495921817448],723.9135204755785,None,[1 0 0 3 0 2 0 3],space,0,3.7607991545883124,0.0027969991551799467,None,723.930168669197,None,1,727.6936001149434,None,None,728.1931819697913,None,,,,,,,,,,,,,,,,,,,,,,,,,,,,,,,,,,,,,,,,,,,,,,,06_JM,6,33,M,2022-11-25_13h46.28.630,dynamic target,2022.1.3,120.09151132274278,
0,2,3,2,mix,0,124,124,124,,,,,,,None,729.2256290457899,None,728.2431912704587,None,728.7260501414985,None,1,[0.008631660239188932],[0.5174140554245241],729.2256290457899,None,[3 3 0 3 2 2 3 1],space,0,3.1685336532627844,0.00275498579867417,None,729.2422737115694,None,1,732.4145496424699,None,None,732.9141539472032,None,,,,,,,,,,,,,,,,,,,,,,,,,,,,,,,,,,,,,,,,,,,,,,,06_JM,6,33,M,2022-11-25_13h46.28.630,dynamic target,2022.1.3,120.09151132274278,
1,1,2,2,mix,0,125,125,125,,,,,,,None,733.946566706948,None,732.9640869182595,None,733.4469974240365,None,1,[0.008014288389858848],[0.5168550532771405],733.946566706948,None,[2 3 1 0 3 0 1 3],space,0,5.4705619041997124,0.0025943087612176896,None,733.9632312569111,None,1,739.433527813484,None,None,739.9331013298026,None,,,,,,,,,,,,,,,,,,,,,,,,,,,,,,,,,,,,,,,,,,,,,,,06_JM,6,33,M,2022-11-25_13h46.28.630,dynamic target,2022.1.3,120.09151132274278,
1,8,2,2,mix,0,126,126,126,,,,,,,None,740.965547443664,None,739.9830561093195,None,740.4659842542915,None,1,[0.009327927401500347],[0.5177081489237025],740.965547443664,None,[0 3 2 1 3 0 0 3],space,0,3.8269166329146174,0.0020147810037087766,None,740.9821988444082,None,1,744.8122551358929,None,None,745.311826407223,None,,,,,,,,,,,,,,,,,,,,,,,,,,,,,,,,,,,,,,,,,,,,,,,06_JM,6,33,M,2022-11-25_13h46.28.630,dynamic target,2022.1.3,120.09151132274278,
1,7,3,2,mix,0,127,127,127,,,,,,,None,746.3442645032674,None,745.3617738103485,None,745.8446769397342,None,1,[0.008594136858846468],[0.5174525409420312],746.3442645032674,None,[2 2 2 2 0 0 0 0],space,0,2.25631623317895,0.0023014981125015765,None,746.3609213561267,None,1,748.6173253463057,None,None,749.1168866755436,None,,,,,,,,,,,,,,,,,,,,,,,,,,,,,,,,,,,,,,,,,,,,,,,06_JM,6,33,M,2022-11-25_13h46.28.630,dynamic target,2022.1.3,120.09151132274278,
0,8,3,1,mix,0,128,128,128,,,,,,,None,750.1493369586697,None,749.1585205653782,None,749.6497583750906,None,1,[0.008665655779623194],[0.517534643379804],750.1493369586697,None,[2 2 2 3 3 2 0 1],space,0,0.8992459945420705,0.002631832141560153,None,750.1659854729996,None,0,751.0652066544026,None,None,751.5647830571354,None,,,,,,,,,,,,,,,,,,,,,,,,,,,,,,,,,,,,,,,,,,,,,,,06_JM,6,33,M,2022-11-25_13h46.28.630,dynamic target,2022.1.3,120.09151132274278,
1,7,1,2,mix,0,129,129,129,,,,,,,None,752.5888909628311,None,751.5980963779994,None,752.0893364327003,None,1,[0.009457174598537677],[0.517564148944075],752.5888909628311,None,[3 0 2 1 0 0 1 0],space,0,3.532058233963653,0.002552936829488317,None,752.6055583992074,None,1,756.1441859928109,None,None,756.6437604712685,None,,,,,,,,,,,,,,,,,,,,,,,,,,,,,,,,,,,,,,,,,,,,,,,06_JM,6,33,M,2022-11-25_13h46.28.630,dynamic target,2022.1.3,120.09151132274278,
1,6,1,2,mix,0,130,130,130,,,,,,,None,757.6678818468945,None,756.6770622464765,None,757.1683180160971,None,1,[0.008705424148502061],[0.5181914628856248],757.6678818468945,None,[1 2 3 2 0 0 3 1],space,0,2.5316419489454347,0.0016934269306148053,None,757.6845412654557,None,1,760.2156930472065,None,None,760.7152652806747,None,,,,,,,,,,,,,,,,,,,,,,,,,,,,,,,,,,,,,,,,,,,,,,,06_JM,6,33,M,2022-11-25_13h46.28.630,dynamic target,2022.1.3,120.09151132274278,
1,5,3,2,mix,0,131,131,131,,,,,,,None,761.739394032692,None,760.7569155268538,None,761.2398196183776,None,1,[0.008574894100092934],[0.5172803182495045],761.739394032692,None,[3 0 0 3 2 3 1 0],space,0,2.8768095790328516,0.0025968744621422957,None,761.7560518476894,None,1,764.6369093435142,None,None,765.1364793319938,None,,,,,,,,,,,,,,,,,,,,,,,,,,,,,,,,,,,,,,,,,,,,,,,06_JM,6,33,M,2022-11-25_13h46.28.630,dynamic target,2022.1.3,120.09151132274278,
1,4,2,2,mix,0,132,132,132,,,,,,,None,766.1689257665676,None,765.1864427707524,None,765.6693664257473,None,1,[0.007735589098047058],[0.5165628840541103],766.1689257665676,None,[1 1 1 3 1 1 2 3],space,0,2.750714666048225,0.002670638371455425,None,766.1855976929219,None,1,768.941539536173,None,None,769.4411185046067,None,,,,,,,,,,,,,,,,,,,,,,,,,,,,,,,,,,,,,,,,,,,,,,,06_JM,6,33,M,2022-11-25_13h46.28.630,dynamic target,2022.1.3,120.09151132274278,
1,2,3,0,mix,0,133,133,133,,,,,,,None,770.4735630149044,None,769.4994137372778,770.4985449267106,769.973991166291,None,1,[0.15009319909586338],[0.6504158360212386],770.4735630149044,None,[1 3 3 0 1 2 2 0],space,0,3.561087218689863,0.00274536441975215,None,770.6234336394218,None,1,774.1870219777966,None,None,774.6866256411042,None,,,,,,,,,,,,,,,,,,,,,,,,,,,,,,,,,,,,,,,,,,,,,,,06_JM,6,33,M,2022-11-25_13h46.28.630,dynamic target,2022.1.3,120.09151132274278,
0,3,4,1,mix,0,134,134,134,,,,,,,None,775.7190460979537,None,774.744943644373,775.7440347447255,775.2194918885361,None,1,[0.04987274122049712],[0.5499994227175193],775.7190460979537,None,[0 0 0 2 0 0 0 1],space,0,3.135197497658737,0.0027934713161812397,None,775.7690365407161,None,1,778.9079936344951,None,None,779.4075578501481,None,,,,,,,,,,,,,,,,,,,,,,,,,,,,,,,,,,,,,,,,,,,,,,,06_JM,6,33,M,2022-11-25_13h46.28.630,dynamic target,2022.1.3,120.09151132274278,
1,2,1,2,mix,0,135,135,135,,,,,,,None,780.4400049261467,None,779.4658761741293,None,779.9404192868888,None,1,[0.008670145756696002],[0.5177742157284229],780.4400049261467,None,[3 3 3 1 1 1 2 2],space,0,5.086685219494939,0.002362754228670383,None,780.4566409326835,None,1,785.5439636106603,None,None,786.043539051255,None,,,,,,,,,,,,,,,,,,,,,,,,,,,,,,,,,,,,,,,,,,,,,,,06_JM,6,33,M,2022-11-25_13h46.28.630,dynamic target,2022.1.3,120.09151132274278,
1,7,4,0,mix,0,136,136,136,,,,,,,None,787.0676761418017,None,786.085135096996,None,786.5680767119002,None,1,[0.008661165802550386],[0.5171228483386585],787.0676761418017,None,[0 3 2 1 0 2 3 1],space,0,5.659241966392074,0.003042665045541071,None,787.0843278632583,None,1,792.7461129626927,None,None,793.2456845547351,None,,,,,,,,,,,,,,,,,,,,,,,,,,,,,,,,,,,,,,,,,,,,,,,06_JM,6,33,M,2022-11-25_13h46.28.630,dynamic target,2022.1.3,120.09151132274278,
1,6,1,2,mix,0,137,137,137,,,,,,,None,794.278138750555,None,793.28730882319,None,793.7702395338638,None,1,[0.008681691412675718],[0.5164891201438877],794.278138750555,None,[0 1 3 2 3 0 2 0],space,0,1.6573635524055135,0.0034887763395090587,None,794.2864560482558,None,1,795.9433396962722,None,None,796.4429516981093,None,,,,,,,,,,,,,,,,,,,,,,,,,,,,,,,,,,,,,,,,,,,,,,,06_JM,6,33,M,2022-11-25_13h46.28.630,dynamic target,2022.1.3,120.09151132274278,
1,5,1,2,mix,0,138,138,138,,,,,,,None,797.4753843420385,None,796.5012661735391,None,796.9758025513338,None,1,[0.008670787183291395],[0.5171475432134685],797.4753843420385,None,[2 1 0 3 3 1 2 1],space,0,2.9956567068584263,0.002980446790388669,None,797.492043119174,None,1,800.4894671551765,None,None,800.9890416336332,None,,,,,,,,,,,,,,,,,,,,,,,,,,,,,,,,,,,,,,,,,,,,,,,06_JM,6,33,M,2022-11-25_13h46.28.630,dynamic target,2022.1.3,120.09151132274278,
0,4,4,2,mix,0,139,139,139,,,,,,,None,802.0214855025051,None,801.0390130902078,802.0381221504686,801.5219197474325,None,2,"[0.009398163470905274, 0.833147640709285]","[0.2833194785462183, 1.3333342954711043]",802.0214855025051,None,[0 2 2 3 3 0 2 3],space,0,2.016673648183314,0.0027104067403342924,None,802.85412288939,None,1,804.8690171055296,None,None,805.3686316730684,None,,,,,,,,,,,,,,,,,,,,,,,,,,,,,,,,,,,,,,,,,,,,,,,06_JM,6,33,M,2022-11-25_13h46.28.630,dynamic target,2022.1.3,120.09151132274278,
1,3,4,2,mix,0,140,140,140,,,,,,,None,806.4010582234569,None,805.4185441185145,None,805.9015190875343,None,1,[0.008635188078187639],[0.5175442647596356],806.4010582234569,None,[1 1 3 3 0 3 3 2],space,0,4.4850536259646105,0.002694371106372273,None,806.4177195662942,None,1,810.9055238263845,None,None,811.4051146611866,None,,,,,,,,,,,,,,,,,,,,,,,,,,,,,,,,,,,,,,,,,,,,,,,06_JM,6,33,M,2022-11-25_13h46.28.630,dynamic target,2022.1.3,120.09151132274278,
1,1,3,0,mix,0,141,141,141,,,,,,,None,812.4375508329549,None,811.4634426065477,None,811.937958138019,None,1,[0.008651865136926062],[0.5171462603630061],812.4375508329549,None,[0 2 1 1 2 1 3 1],space,0,2.112612912905206,0.002951582652713114,None,812.4542035165505,None,1,814.5690587340314,None,None,815.0686207046958,None,,,,,,,,,,,,,,,,,,,,,,,,,,,,,,,,,,,,,,,,,,,,,,,06_JM,6,33,M,2022-11-25_13h46.28.630,dynamic target,2022.1.3,120.09151132274278,
0,7,2,0,mix,0,142,142,142,,,,,,,None,816.1010736176643,None,815.1269095231128,None,815.5931824187892,None,1,[0.00869323706774594],[0.5164689152470601],816.1010736176643,None,[2 1 2 2 3 3 2 1],space,0,2.809848626439816,0.00326331534779456,None,816.1093803318481,None,1,818.9236521088778,None,None,819.4232237009212,None,,,,,,,,,,,,,,,,,,,,,,,,,,,,,,,,,,,,,,,,,,,,,,,06_JM,6,33,M,2022-11-25_13h46.28.630,dynamic target,2022.1.3,120.09151132274278,
1,6,2,2,mix,0,143,143,143,,,,,,,None,820.4556743047588,None,819.4814897487413,None,819.9560896276398,None,1,[0.008646092309390951],[0.5169227236456209],820.4556743047588,None,[0 3 0 2 2 0 3 0],space,0,3.966848693146858,0.0031205982177198166,None,820.4723176876878,None,1,824.4439060748109,None,None,824.943478308279,None,,,,,,,,,,,,,,,,,,,,,,,,,,,,,,,,,,,,,,,,,,,,,,,06_JM,6,33,M,2022-11-25_13h46.28.630,dynamic target,2022.1.3,120.09151132274278,
1,5,3,2,mix,0,144,144,144,,,,,,,None,825.9759340435194,None,825.0018065743525,None,825.4763615534812,None,1,[0.00866437292916089],[0.51779442062616],825.9759340435194,None,[3 2 1 0 2 0 2 3],space,0,2.540776486618597,0.002349284297451959,None,825.9925815957122,None,1,828.5320664542269,None,None,829.0316524783395,None,,,,,,,,,,,,,,,,,,,,,,,,,,,,,,,,,,,,,,,,,,,,,,,06_JM,6,33,M,2022-11-25_13h46.28.630,dynamic target,2022.1.3,120.09151132274278,
1,4,1,2,mix,0,145,145,145,,,,,,,None,830.0640774251651,None,829.0815992400394,830.0807368437254,829.5645212914715,None,2,"[0.08419027753188857, 0.10844834088948119]","[0.09183734993894177, 0.6085958687081074]",830.0640774251651,None,[3 1 0 2 0 1 1 2],space,0,2.041237350696065,0.002732856625698332,None,830.1723394320052,None,1,832.2122489140675,None,None,832.7118134504319,None,,,,,,,,,,,,,,,,,,,,,,,,,,,,,,,,,,,,,,,,,,,,,,,06_JM,6,33,M,2022-11-25_13h46.28.630,dynamic target,2022.1.3,120.09151132274278,
0,3,4,2,mix,0,146,146,146,,,,,,,None,833.7442691856722,None,832.7701218323209,None,833.2446870742542,None,1,[0.008644488744721457],[0.5172841668008914],833.7442691856722,None,[3 0 0 2 1 0 3 1],space,0,3.8446154811708766,0.002746647269304958,None,833.7609212278421,None,1,837.6076125637255,None,None,838.1071889664584,None,,,,,,,,,,,,,,,,,,,,,,,,,,,,,,,,,,,,,,,,,,,,,,,06_JM,6,33,M,2022-11-25_13h46.28.630,dynamic target,2022.1.3,120.09151132274278,
0,2,2,2,mix,0,147,147,147,,,,,,,None,839.1396552852166,None,838.1654620699564,None,838.6400879265802,None,1,[0.00864416803324275],[0.5170182960155216],839.1396552852166,None,[2 1 2 0 3 0 2 1],space,0,3.5533416874995964,0.0029599211820823257,None,839.1562848775011,None,1,842.7115706068143,None,None,843.2111332189027,None,,,,,,,,,,,,,,,,,,,,,,,,,,,,,,,,,,,,,,,,,,,,,,,06_JM,6,33,M,2022-11-25_13h46.28.630,dynamic target,2022.1.3,120.09151132274278,
1,1,4,2,mix,0,148,148,148,,,,,,,None,844.2435825398907,None,843.2694165852054,None,843.7440190298057,None,1,[0.008645450883705053],[0.5171302247299536],844.2435825398907,None,[3 3 3 2 1 3 1 0],space,0,2.1285250709925094,0.0027735871326513006,None,844.2602355441977,None,1,846.3917402381485,None,None,846.891287135318,None,,,,,,,,,,,,,,,,,,,,,,,,,,,,,,,,,,,,,,,,,,,,,,,06_JM,6,33,M,2022-11-25_13h46.28.630,dynamic target,2022.1.3,120.09151132274278,
1,8,1,2,mix,0,149,149,149,,,,,,,None,847.9237649997303,None,846.9496458690928,None,847.4241931511169,None,1,[0.0086162660327318],[0.5169246479217691],847.9237649997303,None,[3 0 0 3 3 0 0 1],space,0,2.3208413732018016,0.0032164913000087836,None,847.9404176833259,None,1,850.2634179758161,None,None,850.7629963028251,None,,,,,,,,,,,,,,,,,,,,,,,,,,,,,,,,,,,,,,,,,,,,,,,06_JM,6,33,M,2022-11-25_13h46.28.630,dynamic target,2022.1.3,120.09151132274278,
0,7,2,2,mix,0,150,150,150,,,,,,,None,851.7954324745933,None,850.8213540744619,None,851.2958692852217,None,1,[0.00853416359404946],[0.5174041133323044],851.7954324745933,None,[2 2 0 0 0 2 2 2],space,0,1.7604704241230138,0.0025805181176110636,None,851.8120893274527,None,1,853.5772401137119,None,None,854.0768113850429,None,,,,,,,,,,,,,,,,,,,,,,,,,,,,,,,,,,,,,,,,,,,,,,,06_JM,6,33,M,2022-11-25_13h46.28.630,dynamic target,2022.1.3,120.09151132274278,
0,6,1,2,mix,0,151,151,151,,,,,,,None,855.1092565367653,None,854.1351563281742,None,854.6096930266813,None,1,[0.008560462031709903],[0.5170856456716137],855.1092565367653,None,[3 2 3 2 0 0 2 1],space,0,1.8547878449771815,0.0027953955923294416,None,855.1259156346132,None,1,856.9826520113811,None,None,857.4822361112176,None,,,,,,,,,,,,,,,,,,,,,,,,,,,,,,,,,,,,,,,,,,,,,,,06_JM,6,33,M,2022-11-25_13h46.28.630,dynamic target,2022.1.3,120.09151132274278,
1,7,3,1,mix,0,152,152,152,,,,,,,None,858.5063696739253,None,857.5238501168678,None,858.0067715268742,None,1,[0.008634225941023033],[0.517379418458404],858.5063696739253,None,[1 1 3 0 2 0 3 0],space,0,2.0409413329198287,0.002822656168063986,None,858.522994134807,None,0,860.5712350900694,None,None,861.0708124549403,None,,,,,,,,,,,,,,,,,,,,,,,,,,,,,,,,,,,,,,,,,,,,,,,06_JM,6,33,M,2022-11-25_13h46.28.630,dynamic target,2022.1.3,120.09151132274278,
0,6,3,2,mix,0,153,153,153,,,,,,,None,862.0949582047278,None,861.1041074951827,None,861.5953655097919,None,1,[0.008631660239188932],[0.5178351511322035],862.0949582047278,None,[0 3 1 2 3 0 2 3],space,0,3.76436836566063,0.002371734182815999,None,862.1115890798628,None,1,865.87502661915,None,None,866.3745917969402,None,,,,,,,,,,,,,,,,,,,,,,,,,,,,,,,,,,,,,,,,,,,,,,,06_JM,6,33,M,2022-11-25_13h46.28.630,dynamic target,2022.1.3,120.09151132274278,
0,7,3,1,mix,0,154,154,154,,,,,,,None,867.4070443891962,None,866.4329162144622,None,866.9074708728776,None,1,[0.008675277160364203],[0.508690992080119],867.4070443891962,None,[3 1 2 2 1 0 0 1],space,0,4.26872781270049,0.0030112352051219204,None,867.4153636111732,None,1,871.6866983787331,None,None,872.1862674050756,None,,,,,,,,,,,,,,,,,,,,,,,,,,,,,,,,,,,,,,,,,,,,,,,06_JM,6,33,M,2022-11-25_13h46.28.630,dynamic target,2022.1.3,120.09151132274278,
1,6,3,2,mix,0,155,155,155,,,,,,,None,873.2103971833733,None,872.2195727081235,None,872.7108185356519,None,1,[0.008636791641947639],[0.5089988762229041],873.2103971833733,None,[3 2 2 2 1 3 2 0],space,0,2.0964050577531452,0.002731253062847827,None,873.2187237817407,None,1,875.3169199013746,None,None,875.8164837963143,None,,,,,,,,,,,,,,,,,,,,,,,,,,,,,,,,,,,,,,,,,,,,,,,06_JM,6,33,M,2022-11-25_13h46.28.630,dynamic target,2022.1.3,120.09151132274278,
1,3,2,0,mix,0,156,156,156,,,,,,,None,876.8489202887959,None,875.8747806325482,876.8738996349011,876.3493567787109,None,2,"[0.008616907457508205, 0.8084784237362328]","[0.4664682096790784, 1.3164737900797263]",876.8489202887959,None,[1 3 2 1 3 2 2 1],space,0,2.7221609774678655,0.0029159835485188523,None,877.6648828629122,None,1,880.3875648801686,None,None,880.8871428864652,None,,,,,,,,,,,,,,,,,,,,,,,,,,,,,,,,,,,,,,,,,,,,,,,06_JM,6,33,M,2022-11-25_13h46.28.630,dynamic target,2022.1.3,120.09151132274278,
0,2,2,2,mix,0,157,157,157,,,,,,,None,881.9195906038894,None,880.945423687067,None,881.4200171517123,None,1,[0.008730439735700202],[0.5171687102474607],881.9195906038894,None,[2 2 1 2 0 2 0 2],space,0,2.3867612925359936,0.002866914513106167,None,881.9362371939442,None,1,884.32585014509,None,None,884.8254089086279,None,,,,,,,,,,,,,,,,,,,,,,,,,,,,,,,,,,,,,,,,,,,,,,,06_JM,6,33,M,2022-11-25_13h46.28.630,dynamic target,2022.1.3,120.09151132274278,
1,8,4,0,mix,0,158,158,158,,,,,,,None,885.8578694545577,None,884.8754166057315,None,885.3582940781052,None,1,[0.009580969681337592],[0.5175606211050763],885.8578694545577,None,[3 0 0 0 0 1 3 3],space,0,2.864011540767933,0.0025086784835366416,None,885.8745231002904,None,1,888.7387340060604,None,None,889.238300466701,None,,,,,,,,,,,,,,,,,,,,,,,,,,,,,,,,,,,,,,,,,,,,,,,06_JM,6,33,M,2022-11-25_13h46.28.630,dynamic target,2022.1.3,120.09151132274278,
0,7,2,2,mix,0,159,159,159,,,,,,,None,890.2707469012748,None,889.2882754511147,None,889.7711750526614,None,1,[0.008686502102136728],[0.5174688972874719],890.2707469012748,None,[1 0 0 0 2 1 1 0],space,0,3.219227418866467,0.0027235559582550195,None,890.2874034334218,None,0,893.5096364529691,None,None,894.0092048378858,None,,,,,,,,,,,,,,,,,,,,,,,,,,,,,,,,,,,,,,,,,,,,,,,06_JM,6,33,M,2022-11-25_13h46.28.630,dynamic target,2022.1.3,120.09151132274278,
0,6,2,2,mix,0,160,160,160,,,,,,,None,895.0416621766899,None,894.0591538445751,None,894.5420819895471,None,1,[0.008676880723214708],[0.5175833917028285],895.0416621766899,None,[2 1 1 1 1 0 2 2],space,0,1.9994417575435364,0.002504829933059227,None,895.0582930518249,None,1,897.0649154473176,None,None,897.5644899257743,None,,,,,,,,,,,,,,,,,,,,,,,,,,,,,,,,,,,,,,,,,,,,,,,06_JM,6,33,M,2022-11-25_13h46.28.630,dynamic target,2022.1.3,120.09151132274278,
0,5,2,2,mix,0,161,161,161,,,,,,,None,898.5969370017729,None,897.6228011940775,None,898.0973722088384,None,1,[0.008679125711751112],[0.5177126389007753],898.5969370017729,None,[2 3 0 1 1 1 3 3],space,0,2.827958307599147,0.0024878321619326016,None,898.6135957789083,None,1,901.444505486752,None,None,901.9440639295765,None,,,,,,,,,,,,,,,,,,,,,,,,,,,,,,,,,,,,,,,,,,,,,,,06_JM,6,33,M,2022-11-25_13h46.28.630,dynamic target,2022.1.3,120.09151132274278,
0,4,2,2,mix,0,162,162,162,,,,,,,None,902.9765132505636,None,902.0023761600178,None,902.4769462126405,None,1,[0.00862652883733972],[0.5173733249175712],902.9765132505636,None,[0 2 0 2 1 1 0 1],space,0,3.0403842550485933,0.0026074579800479114,None,902.9931806869408,None,1,906.0322277726891,None,None,906.5317984025944,None,,,,,,,,,,,,,,,,,,,,,,,,,,,,,,,,,,,,,,,,,,,,,,,06_JM,6,33,M,2022-11-25_13h46.28.630,dynamic target,2022.1.3,120.09151132274278,
1,3,4,2,mix,0,163,163,163,,,,,,,None,907.5642381022026,None,906.5901484771284,None,907.0646697814282,None,1,[0.008687784953508526],[0.517257226939364],907.5642381022026,None,[1 3 0 2 2 1 1 1],space,0,3.2365346769784082,0.0026016851516033057,None,907.5809074628551,None,1,910.8197861103199,None,None,911.3193708515821,None,,,,,,,,,,,,,,,,,,,,,,,,,,,,,,,,,,,,,,,,,,,,,,,06_JM,6,33,M,2022-11-25_13h46.28.630,dynamic target,2022.1.3,120.09151132274278,
0,2,1,2,mix,0,164,164,164,,,,,,,None,912.3517970812582,None,911.3609829329562,None,911.852225553358,None,1,[0.00923299645728548],[0.5175619039555386],912.3517970812582,None,[1 2 1 2 2 0 2 3],space,0,2.4486537024222343,0.002446460230203229,None,912.3684577826698,None,1,914.8163528814111,None,None,915.3159103620976,None,,,,,,,,,,,,,,,,,,,,,,,,,,,,,,,,,,,,,,,,,,,,,,,06_JM,6,33,M,2022-11-25_13h46.28.630,dynamic target,2022.1.3,120.09151132274278,
1,1,4,2,mix,0,165,165,165,,,,,,,None,916.3483677009008,None,915.3658792529704,None,915.8487977765635,None,1,[0.009128764845627302],[0.5176350264391658],916.3483677009008,None,[0 1 1 3 3 2 3 2],space,0,3.12405658165153,0.002549088278101408,None,916.3650181395078,None,1,919.4873462824271,None,None,919.9869191573209,None,,,,,,,,,,,,,,,,,,,,,,,,,,,,,,,,,,,,,,,,,,,,,,,06_JM,6,33,M,2022-11-25_13h46.28.630,dynamic target,2022.1.3,120.09151132274278,
1,8,4,2,mix,0,166,166,166,,,,,,,None,921.0110331565566,None,920.0202186875413,None,920.5114670807707,None,1,[0.008667259343383193],[0.5174762736778575],921.0110331565566,None,[3 2 0 0 3 2 1 3],space,0,2.397282912416813,0.0026103443933607196,None,921.0276877644274,None,1,923.4256337923371,None,None,923.9252044222424,None,,,,,,,,,,,,,,,,,,,,,,,,,,,,,,,,,,,,,,,,,,,,,,,06_JM,6,33,M,2022-11-25_13h46.28.630,dynamic target,2022.1.3,120.09151132274278,
0,4,1,0,mix,0,167,167,167,,,,,,,None,924.9576466875515,None,923.975152787506,None,924.4580745182257,None,1,[0.008625887411653821],[0.5174974407127593],924.9576466875515,None,[0 1 1 2 1 0 2 2],space,0,2.4655045864346903,0.0026292664397260523,None,924.9742955225947,None,1,927.4388545298734,None,None,927.9384222733654,None,,,,,,,,,,,,,,,,,,,,,,,,,,,,,,,,,,,,,,,,,,,,,,,06_JM,6,33,M,2022-11-25_13h46.28.630,dynamic target,2022.1.3,120.09151132274278,
0,3,3,2,mix,0,168,168,168,,,,,,,None,928.9625391590143,None,927.9800272990606,None,928.4629804596198,None,1,[0.008664052216772689],[0.5172485676976066],928.9625391590143,None,[1 0 3 3 2 0 2 1],space,0,2.65368305404445,0.0028236183052285924,None,928.9791915218975,None,1,931.6352374684739,None,None,932.1348055326782,None,,,,,,,,,,,,,,,,,,,,,,,,,,,,,,,,,,,,,,,,,,,,,,,06_JM,6,33,M,2022-11-25_13h46.28.630,dynamic target,2022.1.3,120.09151132274278,
0,2,3,2,mix,0,169,169,169,,,,,,,None,933.1672647957575,None,932.1848135504943,None,932.6676967956955,None,1,[0.008653789413074264],[0.5172809596751904],933.1672647957575,None,[1 2 2 2 2 1 2 3],space,0,2.240267130789107,0.002841257501131622,None,933.1839171586398,None,1,935.4236476189008,None,None,935.9232365294276,None,,,,,,,,,,,,,,,,,,,,,,,,,,,,,,,,,,,,,,,,,,,,,,,06_JM,6,33,M,2022-11-25_13h46.28.630,dynamic target,2022.1.3,120.09151132274278,
0,1,3,2,mix,0,170,170,170,,,,,,,None,936.9556884161157,None,935.9732047788748,None,936.4561204160545,None,1,[0.008718894079720485],[0.5172177792828734],936.9556884161157,None,[3 0 3 1 0 3 1 1],space,0,2.644155964087986,0.0027992441437163507,None,936.9723427032741,None,1,939.6200613459159,None,None,940.1196364657983,None,,,,,,,,,,,,,,,,,,,,,,,,,,,,,,,,,,,,,,,,,,,,,,,06_JM,6,33,M,2022-11-25_13h46.28.630,dynamic target,2022.1.3,120.09151132274278,
1,5,4,0,mix,0,171,171,171,,,,,,,None,941.1520835417969,None,940.1695659090155,None,940.652517466011,None,1,[0.008643847319945053],[0.5175035342535921],941.1520835417969,None,[3 0 1 1 3 3 0 0],space,0,3.4538960713853157,0.002663582693458011,None,941.168746488197,None,1,944.6241055324217,None,None,945.1236960465114,None,,,,,,,,,,,,,,,,,,,,,,,,,,,,,,,,,,,,,,,,,,,,,,,06_JM,6,33,M,2022-11-25_13h46.28.630,dynamic target,2022.1.3,120.09151132274278,
0,4,4,2,mix,0,172,172,172,,,,,,,None,946.1561177862104,None,945.1736373560962,None,945.6565536347007,None,1,[0.008670466469993698],[0.5169919975778612],946.1561177862104,None,[3 1 3 3 0 3 1 0],space,0,3.843344176229948,0.0030526071359417983,None,946.1727723940812,None,1,950.0194800863101,None,None,950.5190410948364,None,,,,,,,,,,,,,,,,,,,,,,,,,,,,,,,,,,,,,,,,,,,,,,,06_JM,6,33,M,2022-11-25_13h46.28.630,dynamic target,2022.1.3,120.09151132274278,
1,3,3,2,mix,0,173,173,173,,,,,,,None,951.551513827847,None,950.5773793030021,None,951.051923698612,None,1,[0.009236203583895986],[0.5175522825766166],951.551513827847,None,[1 2 2 3 1 3 1 0],space,0,3.198869862747415,0.0025506918418614077,None,951.5681440615563,None,1,954.7654054321029,None,None,955.2649661199159,None,,,,,,,,,,,,,,,,,,,,,,,,,,,,,,,,,,,,,,,,,,,,,,,06_JM,6,33,M,2022-11-25_13h46.28.630,dynamic target,2022.1.3,120.09151132274278,
0,4,4,1,mix,0,174,174,174,,,,,,,None,956.297421534443,None,955.3149257101222,None,955.797843913002,None,1,[0.008633263802039437],[0.5169993739682468],956.297421534443,None,[0 2 1 2 0 3 0 1],space,0,3.6209758159438934,0.003155555897137674,None,956.3140681244986,None,1,959.9359655503304,None,None,960.435536500948,None,,,,,,,,,,,,,,,,,,,,,,,,,,,,,,,,,,,,,,,,,,,,,,,06_JM,6,33,M,2022-11-25_13h46.28.630,dynamic target,2022.1.3,120.09151132274278,
1,3,4,2,mix,0,175,175,175,,,,,,,None,961.4679729934296,None,960.4938493728141,None,960.9684114076208,None,1,[0.008668542194754991],[0.5170423494646457],961.4679729934296,None,[0 1 2 2 1 0 2 2],space,0,4.146842894662768,0.0031440102429769468,None,961.4846266391623,None,1,965.6310861639431,None,None,966.1306269675717,None,,,,,,,,,,,,,,,,,,,,,,,,,,,,,,,,,,,,,,,,,,,,,,,06_JM,6,33,M,2022-11-25_13h46.28.630,dynamic target,2022.1.3,120.09151132274278,
0,2,4,2,mix,0,176,176,176,,,,,,,None,967.1630885397828,None,966.1806038762616,None,966.655192209505,None,1,[0.008644488744721457],[0.5164746880745952],967.1630885397828,None,[1 0 3 1 2 2 2 2],space,0,2.666833555510493,0.0024916807142290054,None,967.1714161002883,None,1,969.8358127628244,None,None,970.3353657535338,None,,,,,,,,,,,,,,,,,,,,,,,,,,,,,,,,,,,,,,,,,,,,,,,06_JM,6,33,M,2022-11-25_13h46.28.630,dynamic target,2022.1.3,120.09151132274278,
0,1,4,2,mix,0,177,177,177,,,,,,,None,971.3678157159466,None,970.3936712490095,None,970.8682602236777,None,1,[0.008555009916562994],[0.5168374140812375],971.3678157159466,None,[3 3 0 1 3 1 2 0],space,0,2.7741391972303973,0.0030686427699038177,None,971.3844738516564,None,1,974.1570802448705,None,None,974.6566585718795,None,,,,,,,,,,,,,,,,,,,,,,,,,,,,,,,,,,,,,,,,,,,,,,,06_JM,6,33,M,2022-11-25_13h46.28.630,dynamic target,2022.1.3,120.09151132274278,
1,8,4,2,mix,0,178,178,178,,,,,,,None,975.689112703556,None,974.7150025528726,None,975.1895212914715,None,1,[0.00864737515894376],[0.5176789640718198],975.689112703556,None,[3 1 2 0 1 1 0 3],space,0,4.995805838239903,0.002481097195413895,None,975.7057570486231,None,1,980.7014742519059,None,None,981.2010407125465,None,,,,,,,,,,,,,,,,,,,,,,,,,,,,,,,,,,,,,,,,,,,,,,,06_JM,6,33,M,2022-11-25_13h46.28.630,dynamic target,2022.1.3,120.09151132274278,
1,7,2,2,mix,0,179,179,179,,,,,,,None,982.233494844224,None,981.2593821278388,None,981.733924278461,None,1,[0.008622359572655114],[0.5176574763245299],982.233494844224,None,[3 1 3 1 0 2 0 1],space,0,1.8755328219758667,0.0023630749419680797,None,982.2501286057723,None,1,984.1235519823895,None,space,984.6314431171222,None,0.9075178151906584,,,,,,,,,,,,,,,,,,,,,,,,,,,,,,,,,,,,,,,,,,,,,,06_JM,6,33,M,2022-11-25_13h46.28.630,dynamic target,2022.1.3,120.09151132274278,
1,2,1,0,mix,0,180,180,180,,,,,,,None,986.5797644429731,None,985.605653650865,None,986.080189387234,None,1,[0.009385976390149153],[0.5177373337746758],986.5797644429731,None,[2 1 2 2 2 2 0 0],space,0,4.42442225821469,0.0024278588962260983,None,986.5963808860397,None,1,991.0259578403984,None,None,991.5255377709702,None,,,,,,,,,,,,,,,,,,,,,,,,,,,,,,,,,,,,,,,,,,,,,,,06_JM,6,33,M,2022-11-25_13h46.28.630,dynamic target,2022.1.3,120.09151132274278,
0,1,4,2,mix,0,181,181,181,,,,,,,None,992.5579572656807,None,991.5838166472959,None,992.0583979248613,None,1,[0.008630698102024326],[0.5171950086851211],992.5579572656807,None,[3 2 1 0 0 2 2 3],space,0,2.4785518184271496,0.002879743017729197,None,992.5746118735524,None,0,995.0641553583391,None,None,995.563724705393,None,,,,,,,,,,,,,,,,,,,,,,,,,,,,,,,,,,,,,,,,,,,,,,,06_JM,6,33,M,2022-11-25_13h46.28.630,dynamic target,2022.1.3,120.09151132274278,
1,8,4,2,mix,0,182,182,182,,,,,,,None,996.5878281211117,None,995.6053900250672,None,996.0882549896478,None,1,[0.008682332838361617],[0.5178479796386455],996.5878281211117,None,[2 3 2 3 2 3 2 2],space,0,1.504355075328931,0.00232779655016202,None,996.604474390454,None,1,998.1115358415627,None,None,998.6111295627791,None,,,,,,,,,,,,,,,,,,,,,,,,,,,,,,,,,,,,,,,,,,,,,,,06_JM,6,33,M,2022-11-25_13h46.28.630,dynamic target,2022.1.3,120.09151132274278,
1,1,1,1,mix,0,183,183,183,,,,,,,None,999.6435365496964,None,998.6610487431917,None,999.1439756053132,None,1,[0.008660524378683476],[0.5169714719686453],999.6435365496964,None,[3 1 3 2 1 3 3 2],space,0,3.968721334305883,0.0029926338720542844,None,999.6601905161424,None,1,1003.6317968631738,None,None,1004.1313684552172,None,,,,,,,,,,,,,,,,,,,,,,,,,,,,,,,,,,,,,,,,,,,,,,,06_JM,6,33,M,2022-11-25_13h46.28.630,dynamic target,2022.1.3,120.09151132274278,
1,8,2,2,mix,0,184,184,184,,,,,,,None,1005.1638123240891,None,1004.1813177826189,None,1004.6642109699123,None,1,[0.00810440864370321],[0.516603935272542],1005.1638123240891,None,[0 1 0 2 2 0 0 1],space,0,2.240157126350823,0.0028572931341841468,None,1005.1804544241668,None,1,1007.4202115035778,None,None,1007.9197760399431,None,,,,,,,,,,,,,,,,,,,,,,,,,,,,,,,,,,,,,,,,,,,,,,,06_JM,6,33,M,2022-11-25_13h46.28.630,dynamic target,2022.1.3,120.09151132274278,
1,7,4,2,mix,0,185,185,185,,,,,,,None,1008.9522320958959,None,1007.9697260087696,None,1008.4526493430521,None,1,[0.008622359572655114],[0.5174137347112264],1008.9522320958959,None,[3 2 1 2 3 1 1 2],space,0,2.6273794854096195,0.002741836579843948,None,1008.9688828552153,None,1,1011.5999581149281,None,None,1012.0995220098678,None,,,,,,,,,,,,,,,,,,,,,,,,,,,,,,,,,,,,,,,,,,,,,,,06_JM,6,33,M,2022-11-25_13h46.28.630,dynamic target,2022.1.3,120.09151132274278,
1,6,2,2,mix,0,186,186,186,,,,,,,None,1013.1319748586939,None,1012.1578242982168,None,1012.632408782908,None,1,[0.008720176931092283],[0.5172123271677265],1013.1319748586939,None,[2 2 0 2 2 0 2 2],space,0,1.1674448338199,0.0028120726501583704,None,1013.1486230523124,None,1,1014.314290699077,None,None,1014.813861008269,None,,,,,,,,,,,,,,,,,,,,,,,,,,,,,,,,,,,,,,,,,,,,,,,06_JM,6,33,M,2022-11-25_13h46.28.630,dynamic target,2022.1.3,120.09151132274278,
1,5,1,2,mix,0,187,187,187,,,,,,,None,1015.8463055185666,None,1014.8638000728661,None,1015.346731745678,None,1,[0.00866501435484679],[0.5175814674275898],1015.8463055185666,None,[3 2 3 2 3 1 1 2],space,0,1.6047448694826016,0.002550050415266014,None,1015.862966861403,None,1,1017.469926454175,None,None,1017.9694823312987,None,,,,,,,,,,,,,,,,,,,,,,,,,,,,,,,,,,,,,,,,,,,,,,,06_JM,6,33,M,2022-11-25_13h46.28.630,dynamic target,2022.1.3,120.09151132274278,
0,4,1,2,mix,0,188,188,188,,,,,,,None,1019.001931010861,None,1018.0194399972288,None,1018.5023562758333,None,1,[0.00807811020695226],[0.5169172715313834],1019.001931010861,None,[3 3 1 1 3 3 2 2],space,0,1.8574257065174606,0.0026648655457393033,None,1019.0185913915593,None,1,1020.8753338618681,None,None,1021.3748801176118,None,,,,,,,,,,,,,,,,,,,,,,,,,,,,,,,,,,,,,,,,,,,,,,,06_JM,6,33,M,2022-11-25_13h46.28.630,dynamic target,2022.1.3,120.09151132274278,
1,8,1,0,mix,0,189,189,189,,,,,,,None,1022.4073480399329,None,1021.4332269850192,None,1021.9077694563539,None,1,[0.008793299414719513],[0.5173986612171575],1022.4073480399329,None,[2 1 2 0 3 0 2 0],space,0,2.9479651323645157,0.002765248603282089,None,1022.4239936678496,None,1,1025.3714509938245,None,None,1025.8710113609252,None,,,,,,,,,,,,,,,,,,,,,,,,,,,,,,,,,,,,,,,,,,,,,,,06_JM,6,33,M,2022-11-25_13h46.28.630,dynamic target,2022.1.3,120.09151132274278,
0,1,1,1,mix,0,190,190,190,,,,,,,None,1026.9034892253376,None,1025.9293755468152,None,1026.4039112831842,None,1,[0.008641281619020447],[0.5175471511738579],1026.9034892253376,None,[3 0 2 0 2 3 0 2],space,0,4.739346685486453,0.0026837875902856467,None,1026.9201547374387,None,1,1031.657721670169,None,None,1032.157305449293,None,,,,,,,,,,,,,,,,,,,,,,,,,,,,,,,,,,,,,,,,,,,,,,,06_JM,6,33,M,2022-11-25_13h46.28.630,dynamic target,2022.1.3,120.09151132274278,
0,2,4,1,mix,0,191,191,191,,,,,,,None,1033.1897531667164,None,1032.2072660016374,None,1032.6901877323562,None,1,[0.008671107895679597],[0.517296353882557],1033.1897531667164,None,[1 2 1 3 3 0 0 3],space,0,3.15714290210326,0.002866914513106167,None,1033.206403284611,None,1,1036.3620287769045,None,None,1036.861609348902,None,,,,,,,,,,,,,,,,,,,,,,,,,,,,,,,,,,,,,,,,,,,,,,,06_JM,6,33,M,2022-11-25_13h46.28.630,dynamic target,2022.1.3,120.09151132274278,
0,1,3,2,mix,0,192,192,192,,,,,,,None,1037.8940337184451,None,1036.9115824090395,None,1037.386155668789,None,1,[0.008596061135904165],[0.5164288261667025],1037.8940337184451,None,[2 3 1 1 3 1 0 1],space,0,2.4449231728867744,0.002764286465207988,None,1037.9023561475487,None,1,1040.3502740168879,None,None,1040.8498465710684,None,,,,,,,,,,,,,,,,,,,,,,,,,,,,,,,,,,,,,,,,,,,,,,,06_JM,6,33,M,2022-11-25_13h46.28.630,dynamic target,2022.1.3,120.09151132274278,
1,8,3,2,mix,0,193,193,193,,,,,,,None,1041.882299099182,None,1040.899809047689,None,1041.3827253262934,None,1,[0.008663731504384486],[0.5172318906397777],1041.882299099182,None,[0 2 1 1 1 0 0 3],space,0,3.6473047208774005,0.0027979612932540476,None,1041.8989479342254,None,0,1045.5541767049726,None,None,1046.0537059629462,None,,,,,,,,,,,,,,,,,,,,,,,,,,,,,,,,,,,,,,,,,,,,,,,06_JM,6,33,M,2022-11-25_13h46.28.630,dynamic target,2022.1.3,120.09151132274278,
1,7,3,2,mix,0,194,194,194,,,,,,,None,1047.077828942136,None,1046.0870154352588,1047.086166508876,1046.5782603006492,None,1,[0.4911085625144551],[0.9911537829984809],1047.077828942136,None,[2 1 3 1 2 2 2 3],space,0,2.2973838086163596,0.003050362148314889,None,1047.569079580354,None,1,1049.8754159643058,None,None,1050.3750035919813,None,,,,,,,,,,,,,,,,,,,,,,,,,,,,,,,,,,,,,,,,,,,,,,,06_JM,6,33,M,2022-11-25_13h46.28.630,dynamic target,2022.1.3,120.09151132274278,
1,8,4,1,mix,0,195,195,195,,,,,,,None,1051.4074586857969,None,1050.4333472522621,None,1050.9078797815046,None,1,[0.0077410412131939665],[0.5167707058508313],1051.4074586857969,None,[1 0 2 2 0 3 2 0],space,0,1.785932763477831,0.0024891150123949046,None,1051.4241184250704,None,1,1053.2142424638942,None,None,1053.7138034724196,None,,,,,,,,,,,,,,,,,,,,,,,,,,,,,,,,,,,,,,,,,,,,,,,06_JM,6,33,M,2022-11-25_13h46.28.630,dynamic target,2022.1.3,120.09151132274278,
1,8,2,0,mix,0,196,196,196,,,,,,,None,1054.7379283758855,None,1053.7471087754675,None,1054.2383712800538,None,1,[0.008987009854536154],[0.5174932714489842],1054.7379283758855,None,[0 2 0 1 0 0 1 2],space,0,1.9598568366827749,0.0026180414970440324,None,1054.75458458732,None,1,1056.7195884230432,None,None,1057.2191314716604,None,,,,,,,,,,,,,,,,,,,,,,,,,,,,,,,,,,,,,,,,,,,,,,,06_JM,6,33,M,2022-11-25_13h46.28.630,dynamic target,2022.1.3,120.09151132274278,
0,7,3,2,mix,0,197,197,197,,,,,,,None,1058.2515897726016,None,1057.277413875825,1058.2765530830748,1057.7520050954827,None,2,"[0.008701575597115152, 0.2752137870511433]","[0.10025381199011463, 0.7839342846946238]",1058.2515897726016,None,[1 3 1 0 2 3 2 1],space,0,2.051333064177925,0.0025555025313224178,None,1058.5346937322483,None,1,1060.5829122376254,None,None,1061.0824690768861,None,,,,,,,,,,,,,,,,,,,,,,,,,,,,,,,,,,,,,,,,,,,,,,,06_JM,6,33,M,2022-11-25_13h46.28.630,dynamic target,2022.1.3,120.09151132274278,
1,8,1,1,mix,0,198,198,198,,,,,,,None,1062.1149267364026,None,1061.1408140200174,None,1061.6153548877892,None,1,[0.009440497540708748],[0.5177347680737512],1062.1149267364026,None,[3 3 3 0 0 2 0 1],space,0,1.6694383836465931,0.0025067542082979344,None,1062.1315733264573,None,1,1063.805147502162,None,None,1064.304705303561,None,,,,,,,,,,,,,,,,,,,,,,,,,,,,,,,,,,,,,,,,,,,,,,,06_JM,6,33,M,2022-11-25_13h46.28.630,dynamic target,2022.1.3,120.09151132274278,
1,7,3,2,mix,0,199,199,199,,,,,,,None,1065.337168735905,None,1064.3630406253124,None,1064.8375904730383,None,1,[0.00866180722914578],[0.5174688972874719],1065.337168735905,None,[1 1 0 3 0 0 0 2],space,0,1.6640709367502495,0.0026866740045079496,None,1065.3538207780748,None,1,1067.0190599527396,None,None,1067.5186158298632,None,,,,,,,,,,,,,,,,,,,,,,,,,,,,,,,,,,,,,,,,,,,,,,,06_JM,6,33,M,2022-11-25_13h46.28.630,dynamic target,2022.1.3,120.09151132274278,
0,6,1,2,mix,0,200,200,200,,,,,,,None,1068.5510715651035,None,1067.5685792686218,None,1068.0515086964442,None,1,[0.008672070033753698],[0.5175186077485705],1068.5510715651035,None,[2 1 2 3 3 2 2 3],space,0,2.0179510466650754,0.002626059314025042,None,1068.5677088544917,None,1,1070.5909848957172,None,None,1071.0905747683812,None,,,,,,,,,,,,,,,,,,,,,,,,,,,,,,,,,,,,,,,,,,,,,,,06_JM,6,33,M,2022-11-25_13h46.28.630,dynamic target,2022.1.3,120.09151132274278,
1,5,4,2,mix,0,201,201,201,,,,,,,None,1072.1230102987247,None,1071.1405163986792,1072.139641494572,1071.6234326772837,None,2,"[0.008608568928138993, 0.7749876846337429]","[0.3249146262924114, 1.2834083159505099]",1072.1230102987247,None,[1 1 3 2 2 2 2 2],space,0,1.6312437521191896,0.002577631703388761,None,1072.9056671849385,None,1,1074.5375993888501,None,None,1075.037168735905,None,,,,,,,,,,,,,,,,,,,,,,,,,,,,,,,,,,,,,,,,,,,,,,,06_JM,6,33,M,2022-11-25_13h46.28.630,dynamic target,2022.1.3,120.09151132274278,
0,4,2,2,mix,0,202,202,202,,,,,,,None,1076.069614529053,None,1075.0954658928513,None,1075.5700369076121,None,1,[0.008653147987388365],[0.5175420197710991],1076.069614529053,None,[1 1 3 2 0 3 3 1],space,0,1.7619655864937158,0.0025676896120785386,None,1076.0862694576363,None,1,1077.8514196024707,None,None,1078.3509988916169,None,,,,,,,,,,,,,,,,,,,,,,,,,,,,,,,,,,,,,,,,,,,,,,,06_JM,6,33,M,2022-11-25_13h46.28.630,dynamic target,2022.1.3,120.09151132274278,
1,3,1,2,mix,0,203,203,203,,,,,,,None,1079.3751135322782,None,1078.392622518646,None,1078.8755407215267,None,1,[0.008657958676849375],[0.5173768527574794],1079.3751135322782,None,[2 1 0 3 0 3 2 1],space,0,1.9447798143337423,0.0027941127418671385,None,1079.3917652537348,None,0,1081.3401032566444,None,None,1081.8396886393314,None,,,,,,,,,,,,,,,,,,,,,,,,,,,,,,,,,,,,,,,,,,,,,,,06_JM,6,33,M,2022-11-25_13h46.28.630,dynamic target,2022.1.3,120.09151132274278,
1,2,3,2,mix,0,204,204,204,,,,,,,None,1082.8721097376056,None,1081.889626421078,1082.8887617797755,1082.3642368834944,None,1,[0.30833827230799216],[0.8086727756008258],1082.8721097376056,None,[1 2 3 0 1 0 2 2],space,0,1.7324770205405002,0.002578914552941569,None,1083.1718622115832,None,1,1084.9120288410468,None,None,1085.411605564493,None,,,,,,,,,,,,,,,,,,,,,,,,,,,,,,,,,,,,,,,,,,,,,,,06_JM,6,33,M,2022-11-25_13h46.28.630,dynamic target,2022.1.3,120.09151132274278,
1,1,1,2,mix,0,205,205,205,,,,,,,None,1086.4440465469515,None,1085.469942489808,None,1085.9444830368666,None,1,[0.008666297206218587],[0.5171039262932027],1086.4440465469515,None,[2 3 0 2 2 0 3 2],space,0,2.53975084756712,0.002930415618720872,None,1086.4607066069375,None,1,1089.000191144739,None,None,1089.4997697924603,None,,,,,,,,,,,,,,,,,,,,,,,,,,,,,,,,,,,,,,,,,,,,,,,06_JM,6,33,M,2022-11-25_13h46.28.630,dynamic target,2022.1.3,120.09151132274278,
0,8,3,2,mix,0,206,206,206,,,,,,,None,1090.5322094920684,None,1089.5580573280276,None,1090.0326379641674,None,1,[0.008630377388726629],[0.5175580554032422],1090.5322094920684,None,[0 1 2 2 0 3 0 3],space,0,2.419359809047819,0.002381676274126221,None,1090.5489102825604,None,1,1092.9717772868735,None,None,1093.4713466339283,None,,,,,,,,,,,,,,,,,,,,,,,,,,,,,,,,,,,,,,,,,,,,,,,06_JM,6,33,M,2022-11-25_13h46.28.630,dynamic target,2022.1.3,120.09151132274278,
0,7,3,2,mix,0,207,207,207,,,,,,,None,1094.5037949927773,None,1093.5212982063185,None,1094.0042228234515,None,1,[0.008789771575720806],[0.5172168171447993],1094.5037949927773,None,[0 2 3 1 1 2 2 2],space,0,1.50368510660428,0.0030202151592675364,None,1094.5204454313844,None,1,1096.0274879604476,None,None,1096.527078153824,None,,,,,,,,,,,,,,,,,,,,,,,,,,,,,,,,,,,,,,,,,,,,,,,06_JM,6,33,M,2022-11-25_13h46.28.630,dynamic target,2022.1.3,120.09151132274278,
1,6,4,2,mix,0,208,208,208,,,,,,,None,1097.5595075906267,None,1096.5770175391335,None,1097.0599418355541,None,1,[0.008623963136415114],[0.5171292625918795],1097.5595075906267,None,[2 3 0 1 2 1 2 0],space,0,1.455380329525724,0.002675449060916435,None,1097.5761541806824,None,1,1099.033244111074,None,None,1099.5327980639215,None,,,,,,,,,,,,,,,,,,,,,,,,,,,,,,,,,,,,,,,,,,,,,,,06_JM,6,33,M,2022-11-25_13h46.28.630,dynamic target,2022.1.3,120.09151132274278,
0,1,1,0,mix,0,209,209,209,,,,,,,None,1100.5652560441504,None,1099.5827788211627,None,1100.065684195537,None,1,[0.00864897872270376],[0.5175028928288157],1100.5652560441504,None,[2 3 1 3 0 0 2 3],space,0,2.6414677506627413,0.002661658417309809,None,1100.581894616389,None,1,1103.2213161020845,None,None,1103.7208892976907,None,,,,,,,,,,,,,,,,,,,,,,,,,,,,,,,,,,,,,,,,,,,,,,,06_JM,6,33,M,2022-11-25_13h46.28.630,dynamic target,2022.1.3,120.09151132274278,
0,8,3,2,mix,0,210,210,210,,,,,,,None,1104.7533382979655,None,1103.7791710604297,None,1104.2537600350988,None,1,[0.00862011458411871],[0.5173637035377396],1104.7533382979655,None,[1 0 1 0 0 1 2 0],space,0,1.749960029183967,0.0029310570425877813,None,1104.7699906608477,None,1,1106.5184890842247,None,None,1107.0180661283823,None,,,,,,,,,,,,,,,,,,,,,,,,,,,,,,,,,,,,,,,,,,,,,,,06_JM,6,33,M,2022-11-25_13h46.28.630,dynamic target,2022.1.3,120.09151132274278,
0,1,4,1,mix,0,211,211,211,,,,,,,None,1108.0504933201973,None,1107.076334421191,None,1107.5509317343885,None,1,[0.008614983182269498],[0.517048443004569],1108.0504933201973,None,[3 3 2 2 2 2 1 0],space,0,2.036091516240049,0.0029878231825932744,None,1108.0671652465508,None,1,1110.1070679936474,None,None,1110.6066408685413,None,,,,,,,,,,,,,,,,,,,,,,,,,,,,,,,,,,,,,,,,,,,,,,,06_JM,6,33,M,2022-11-25_13h46.28.630,dynamic target,2022.1.3,120.09151132274278,
1,1,3,0,mix,0,212,212,212,,,,,,,None,1111.6391023766091,None,1110.656579612425,None,1111.1395356593985,None,1,[0.00871247982740897],[0.5174413159993492],1111.6391023766091,None,[3 2 3 1 0 0 2 0],space,0,2.255511244428817,0.002743119430306251,None,1111.65572427179,None,1,1113.9121417318993,None,None,1114.411706588977,None,,,,,,,,,,,,,,,,,,,,,,,,,,,,,,,,,,,,,,,,,,,,,,,06_JM,6,33,M,2022-11-25_13h46.28.630,dynamic target,2022.1.3,120.09151132274278,
0,8,1,2,mix,0,213,213,213,,,,,,,None,1115.444159437804,None,1114.461639239321,1115.460812442111,1114.9445911170296,None,2,"[0.008672070033753698, 0.22505400801037467]","[0.1006963954459934, 0.7253541950494764]",1115.444159437804,None,[2 3 0 3 3 2 3 1],space,0,3.889465541593381,0.002839974650669319,None,1115.6689626485222,None,1,1119.5572744684514,None,None,1120.056863058265,None,,,,,,,,,,,,,,,,,,,,,,,,,,,,,,,,,,,,,,,,,,,,,,,06_JM,6,33,M,2022-11-25_13h46.28.630,dynamic target,2022.1.3,120.09151132274278,
0,7,2,2,mix,0,214,214,214,,,,,,,None,1121.089315907091,None,1120.1068313077121,None,1120.5897450206157,None,1,[0.008664052216772689],[0.5176116144157277],1121.089315907091,None,[3 0 2 3 2 2 0 1],space,0,2.099961119607542,0.002549088278101408,None,1121.105973401376,None,1,1123.2041669553082,None,None,1123.7037324538107,None,,,,,,,,,,,,,,,,,,,,,,,,,,,,,,,,,,,,,,,,,,,,,,,06_JM,6,33,M,2022-11-25_13h46.28.630,dynamic target,2022.1.3,120.09151132274278,
1,6,1,2,mix,0,215,215,215,,,,,,,None,1124.7361926790281,None,1123.7620434014016,None,1124.2366243582537,None,1,[0.008675597872752405],[0.5169496635080577],1124.7361926790281,None,[1 0 3 2 3 3 0 0],space,0,2.3745065414996134,0.003246638289965631,None,1124.7528293269906,None,1,1127.1258014609102,None,None,1127.6253727322412,None,,,,,,,,,,,,,,,,,,,,,,,,,,,,,,,,,,,,,,,,,,,,,,,06_JM,6,33,M,2022-11-25_13h46.28.630,dynamic target,2022.1.3,120.09151132274278,
