tar_letter,tar_pos,tar_ori,tar_pos_type,block,trials.thisRepN,trials.thisTrialN,trials.thisN,trials.thisIndex,instructions_key.keys,instructions_key.rt,instructions_key.started,instructions_key.stopped,instruction_text.started,instruction_text.stopped,fix_key.keys,fix_key.started,fix_key.stopped,fixcross.started,fixcross.stopped,roi.started,roi.stopped,roi.numLooks,roi.timesOn,roi.timesOff,RedFixCross.started,RedFixCross.stopped,distori,search_resp.keys,search_resp.corr,search_resp.rt,search_resp.started,search_resp.stopped,fixcross_shape.started,fixcross_shape.stopped,correct,feedback_text.started,feedback_text.stopped,break_key.keys,break_key.started,break_key.stopped,break_key.rt,text_q1.started,text_q1.stopped,key_resp1.keys,key_resp1.rt,key_resp1.started,key_resp1.stopped,text_q2.started,text_q2.stopped,key_resp_2.keys,key_resp_2.rt,key_resp_2.started,key_resp_2.stopped,image.started,image.stopped,text_q1_2.started,text_q1_2.stopped,slider.response,slider.rt,slider.started,slider.stopped,mouse.x,mouse.y,mouse.leftButton,mouse.midButton,mouse.rightButton,mouse.time,mouse.started,mouse.stopped,key_resp_3.keys,key_resp_3.rt,key_resp_3.started,key_resp_3.stopped,text_q4.started,text_q4.stopped,key_resp1_3.keys,key_resp1_3.rt,key_resp1_3.started,key_resp1_3.stopped,finish_text.started,finish_text.stopped,key_resp.keys,key_resp.rt,key_resp.started,key_resp.stopped,participant,group,age,gender,date,expName,psychopyVersion,frameRate,
,,,,,,,,,space,8.255476004022057,44.56914179860905,None,,,,,,,,,,,,,,,,,,,,,,,,,,,,,,,,,,,,,,,,,,,,,,,,,,,,,,,,,,,,,,,,,,,,,,,,,,07_DS,7,29,M,2022-11-25_17h19.18.478,dynamic target,2022.1.3,120.10122525372583,
1,5,1,0,L,0,0,0,0,,,,,44.56914179860905,None,None,249.83473228190996,None,248.84644214215587,249.85138496550644,249.33516492327544,None,1,[0.2080151863847277],[0.7081967097437882],249.83473228190996,None,[3 2 0 1 3 3 2 1],space,0,3.3067358274493017,0.007792804233758943,None,250.0512133200973,None,1,253.36504475865877,None,None,253.86461025716054,None,,,,,,,,,,,,,,,,,,,,,,,,,,,,,,,,,,,,,,,,,,,,,,07_DS,7,29,M,2022-11-25_17h19.18.478,dynamic target,2022.1.3,120.10122525372583,
1,6,1,2,L,0,1,1,1,,,,,,,None,254.89705605031122,None,253.90624542984733,254.90538431638197,254.39750023732995,None,1,[0.15844904645928182],[0.6589971443754621],254.89705605031122,None,[1 0 0 3 2 3 2 3],space,0,3.1132749017961032,0.0024336317255801987,None,255.0552562237499,None,1,258.16925225204614,None,None,258.6688228819497,None,,,,,,,,,,,,,,,,,,,,,,,,,,,,,,,,,,,,,,,,,,,,,,07_DS,7,29,M,2022-11-25_17h19.18.478,dynamic target,2022.1.3,120.10122525372583,
1,7,4,2,L,0,2,2,2,,,,,,,None,259.6929554825183,None,258.7188248062266,259.71794284644056,259.19341730873566,None,1,[0.525515577654005],[1.0332338482694468],259.6929554825183,None,[1 3 1 0 2 3 2 2],space,0,1.7340559268959623,0.002907003596192226,None,260.2258343018875,None,1,261.95766593031294,None,None,262.45722597669953,None,,,,,,,,,,,,,,,,,,,,,,,,,,,,,,,,,,,,,,,,,,,,,,07_DS,7,29,M,2022-11-25_17h19.18.478,dynamic target,2022.1.3,120.10122525372583,
1,8,3,2,L,0,3,3,3,,,,,,,None,263.4896868433425,None,262.50727248003386,263.5063552418578,262.99011723971853,None,1,[4.029627434530994],[4.538109001248813],263.4896868433425,None,[0 2 2 3 3 1 2 3],space,0,1.3595620114574558,0.0024849457513482776,None,267.52789334123736,None,1,268.8850460030226,None,None,269.38462208504495,None,,,,,,,,,,,,,,,,,,,,,,,,,,,,,,,,,,,,,,,,,,,,,,07_DS,7,29,M,2022-11-25_17h19.18.478,dynamic target,2022.1.3,120.10122525372583,
1,1,1,2,L,0,4,4,4,,,,,,,None,270.41708102741177,None,269.4346637776871,270.4337349938578,269.9175175173259,None,6,"[0.9085760486668732, 0.9248451599341934, 0.9585042731741851, 0.9919943708518986, 1.0420338826479565, 1.4162138204046641]","[0.9167279227840481, 0.9331298090874043, 0.9667462675461138, 1.0328573316182883, 1.066822725442762, 1.9240331155051535]",270.41708102741177,None,[0 3 3 3 2 3 1 1],space,0,4.31137942589703,0.0031600458751199767,None,271.84086110063436,None,1,276.1538291807483,None,None,276.6534023763546,None,,,,,,,,,,,,,,,,,,,,,,,,,,,,,,,,,,,,,,,,,,,,,,07_DS,7,29,M,2022-11-25_17h19.18.478,dynamic target,2022.1.3,120.10122525372583,
1,4,1,0,L,0,5,5,5,,,,,,,None,277.6858481695017,None,276.6950516603938,None,277.1862926772337,None,1,[0.008662127940624487],[0.5176282914726471],277.6858481695017,None,[1 3 0 3 2 3 3 2],space,0,2.5761062300371123,0.0021741751916124485,None,277.7025075880629,None,1,280.2836283248289,None,None,280.78317939126134,None,,,,,,,,,,,,,,,,,,,,,,,,,,,,,,,,,,,,,,,,,,,,,,07_DS,7,29,M,2022-11-25_17h19.18.478,dynamic target,2022.1.3,120.10122525372583,
1,5,3,2,L,0,6,6,6,,,,,,,None,281.8156408993309,None,280.8332117832397,None,281.3160693714308,None,1,[0.008813504311547149],[0.5175067413802026],281.8156408993309,None,[3 1 1 1 1 3 3 0],space,0,3.503019345127541,0.0024676272660144605,None,281.8323041664444,None,1,285.3376244685787,None,None,285.8371854771052,None,,,,,,,,,,,,,,,,,,,,,,,,,,,,,,,,,,,,,,,,,,,,,,07_DS,7,29,M,2022-11-25_17h19.18.478,dynamic target,2022.1.3,120.10122525372583,
1,5,2,0,L,0,7,7,7,,,,,,,None,286.86132000194993,None,285.87883059188243,None,286.36174398407456,None,1,[0.008624925274489215],[0.5170240688421472],286.86132000194993,None,[1 1 1 1 0 1 3 0],space,0,2.2015228357668093,0.0030516449951392133,None,286.8779544049248,None,1,289.0760826617625,None,None,289.5756555366555,None,,,,,,,,,,,,,,,,,,,,,,,,,,,,,,,,,,,,,,,,,,,,,,07_DS,7,29,M,2022-11-25_17h19.18.478,dynamic target,2022.1.3,120.10122525372583,
1,6,4,2,L,0,8,8,8,,,,,,,None,290.6081039596487,None,289.62565938520856,None,290.10020698794324,None,1,[0.00859125044735265],[0.516328122394043],290.6081039596487,None,[3 2 0 2 2 1 2 1],space,0,1.821735558052751,0.0017264603338844609,None,290.6164302373036,None,1,292.43986605757163,None,None,292.93943925317797,None,,,,,,,,,,,,,,,,,,,,,,,,,,,,,,,,,,,,,,,,,,,,,,07_DS,7,29,M,2022-11-25_17h19.18.478,dynamic target,2022.1.3,120.10122525372583,
1,7,1,2,L,0,9,9,9,,,,,,,None,293.96356094951625,None,292.9810686530327,None,293.46399198731524,None,1,[0.008583553342759842],[0.5171215654881962],293.96356094951625,None,[2 1 0 3 0 2 1 3],space,0,4.23441608720168,0.0027415158692747355,None,293.9802107466967,None,1,298.21824431633286,None,None,298.71782232262774,None,,,,,,,,,,,,,,,,,,,,,,,,,,,,,,,,,,,,,,,,,,,,,,07_DS,7,29,M,2022-11-25_17h19.18.478,dynamic target,2022.1.3,120.10122525372583,
1,8,3,2,L,0,10,10,10,,,,,,,None,299.7502723491838,None,298.7678473382148,None,299.25069498431185,None,1,[0.008645450885524042],[0.5087865644491103],299.7502723491838,None,[3 3 0 2 0 3 3 1],space,0,2.007539148497017,0.002931377759523457,None,299.7585922125836,None,1,301.76520370384605,None,None,302.26476471237254,None,,,,,,,,,,,,,,,,,,,,,,,,,,,,,,,,,,,,,,,,,,,,,,07_DS,7,29,M,2022-11-25_17h19.18.478,dynamic target,2022.1.3,120.10122525372583,
1,1,3,2,L,0,11,11,11,,,,,,,None,303.2972108262329,None,302.31478395513113,None,302.79765148541264,None,1,[0.008638395203888649],[0.5172248349626898],303.2972108262329,None,[1 3 2 2 0 0 0 3],space,0,1.4284039437370666,0.0028011684225930367,None,303.3138833940138,None,1,304.74597986694425,None,None,305.24555851466573,None,,,,,,,,,,,,,,,,,,,,,,,,,,,,,,,,,,,,,,,,,,,,,,07_DS,7,29,M,2022-11-25_17h19.18.478,dynamic target,2022.1.3,120.10122525372583,
1,2,3,2,L,0,12,12,12,,,,,,,None,306.2780014214004,None,305.28720972298106,None,305.77841289572825,None,1,[0.008621397435490508],[0.5175856366913649],306.2780014214004,None,[3 3 3 3 3 2 3 1],space,0,2.8148267661599675,0.0021635916746163275,None,306.29465923639873,None,1,309.10890631855364,None,None,309.60848753197786,None,,,,,,,,,,,,,,,,,,,,,,,,,,,,,,,,,,,,,,,,,,,,,,07_DS,7,29,M,2022-11-25_17h19.18.478,dynamic target,2022.1.3,120.10122525372583,
1,3,3,2,L,0,13,13,13,,,,,,,None,310.63260537976385,None,309.65849587050616,None,310.1330274376087,None,1,[0.008663410790177295],[0.5175991066244023],310.63260537976385,None,[1 3 0 0 3 0 3 1],space,0,1.6602035008982057,0.0023884112415544223,None,310.6492410655883,None,1,312.3061644819718,None,None,312.8057389604313,None,,,,,,,,,,,,,,,,,,,,,,,,,,,,,,,,,,,,,,,,,,,,,,07_DS,7,29,M,2022-11-25_17h19.18.478,dynamic target,2022.1.3,120.10122525372583,
1,4,1,2,L,0,14,14,14,,,,,,,None,313.8381847535784,None,312.84737285026495,None,313.3386151499544,None,1,[0.008642243759823032],[0.5176452892446832],313.8381847535784,None,[0 3 2 1 3 0 0 0],space,0,3.638123397144227,0.0024676272660144605,None,313.8548383993111,None,1,317.49338498089855,None,None,317.9929575350819,None,,,,,,,,,,,,,,,,,,,,,,,,,,,,,,,,,,,,,,,,,,,,,,07_DS,7,29,M,2022-11-25_17h19.18.478,dynamic target,2022.1.3,120.10122525372583,
1,5,1,2,L,0,15,15,15,,,,,,,None,319.0170869285248,None,318.03459431132796,None,318.51751187278205,None,1,[0.008617869592853822],[0.5173255387308018],319.0170869285248,None,[3 3 3 3 2 3 3 2],space,0,2.6033716159035976,0.0027578722110774834,None,319.0337312735901,None,1,321.63983039432424,None,None,322.1394125698847,None,,,,,,,,,,,,,,,,,,,,,,,,,,,,,,,,,,,,,,,,,,,,,,07_DS,7,29,M,2022-11-25_17h19.18.478,dynamic target,2022.1.3,120.10122525372583,
1,6,2,2,L,0,16,16,16,,,,,,,None,323.1718487416547,None,322.18103908332705,None,322.6722813830165,None,1,[0.008687784953508526],[0.5178450932216947],323.1718487416547,None,[2 2 3 2 2 0 1 2],space,0,2.0644659644312924,0.0023508878657594323,None,323.1885030288104,None,1,325.2534075718977,None,None,325.75296024189663,None,,,,,,,,,,,,,,,,,,,,,,,,,,,,,,,,,,,,,,,,,,,,,,07_DS,7,29,M,2022-11-25_17h19.18.478,dynamic target,2022.1.3,120.10122525372583,
1,7,3,2,L,0,17,17,17,,,,,,,None,326.7854278435043,None,325.8029858989066,None,326.28584637351014,None,1,[0.008449174740235321],[0.5173608171244268],326.7854278435043,None,[2 3 0 1 0 1 3 0],space,0,3.041724871905899,0.002538825476221973,None,326.8020721885696,None,1,329.84945812391015,None,None,330.3490281123908,None,,,,,,,,,,,,,,,,,,,,,,,,,,,,,,,,,,,,,,,,,,,,,,07_DS,7,29,M,2022-11-25_17h19.18.478,dynamic target,2022.1.3,120.10122525372583,
1,8,4,2,L,0,18,18,18,,,,,,,None,331.38147647123697,None,330.3906648886368,None,330.8819071883263,None,1,[0.009376996436913032],[0.5175064206669049],331.38147647123697,None,[1 1 2 0 2 3 3 3],space,0,1.7431737875122053,0.0024220860686909873,None,331.39813268267244,None,1,333.13830283997595,None,None,333.63788116698413,None,,,,,,,,,,,,,,,,,,,,,,,,,,,,,,,,,,,,,,,,,,,,,,07_DS,7,29,M,2022-11-25_17h19.18.478,dynamic target,2022.1.3,120.10122525372583,
1,1,3,2,L,0,19,19,19,,,,,,,None,334.6703352986624,None,333.687883091261,334.6869754744621,334.1707515836788,None,1,[0.10805001578046358],[0.6083611070498591],334.6703352986624,None,[2 2 2 2 1 1 1 1],space,0,2.873830196505878,0.0027206695449422114,None,334.7785655549487,None,0,337.6594339550029,None,None,338.15900009493123,None,,,,,,,,,,,,,,,,,,,,,,,,,,,,,,,,,,,,,,,,,,,,,,07_DS,7,29,M,2022-11-25_17h19.18.478,dynamic target,2022.1.3,120.10122525372583,
1,2,1,2,L,0,20,20,20,,,,,,,None,339.19144909520764,None,338.2006291740763,None,338.6918964893521,None,1,[0.008660203664476285],[0.516936514290137],339.19144909520764,None,[0 3 2 2 1 3 1 3],space,0,2.477023981351522,0.0032238676940323785,None,339.2081059480661,None,1,341.6893070554215,None,None,342.1888760817659,None,,,,,,,,,,,,,,,,,,,,,,,,,,,,,,,,,,,,,,,,,,,,,,07_DS,7,29,M,2022-11-25_17h19.18.478,dynamic target,2022.1.3,120.10122525372583,
1,3,1,2,L,0,21,21,21,,,,,,,None,343.22134400408686,None,342.23889275882175,None,342.72175708197756,None,1,[0.008649620147480164],[0.5175760153142619],343.22134400408686,None,[3 1 1 3 2 1 3 2],space,0,3.213952695910848,0.002558709660661407,None,343.237979369198,None,1,346.4518876505135,None,None,346.95145346972856,None,,,,,,,,,,,,,,,,,,,,,,,,,,,,,,,,,,,,,,,,,,,,,,07_DS,7,29,M,2022-11-25_17h19.18.478,dynamic target,2022.1.3,120.10122525372583,
1,4,4,2,L,0,22,22,22,,,,,,,None,347.9838941314738,None,346.9931232793788,None,347.4843341492269,None,1,[0.008626208124042023],[0.5175352848054899],347.9838941314738,None,[3 1 0 2 1 3 2 0],space,0,2.995254250468861,0.002537221909733489,None,348.00055964357307,None,1,350.9979888109774,None,None,351.4975613651608,None,,,,,,,,,,,,,,,,,,,,,,,,,,,,,,,,,,,,,,,,,,,,,,07_DS,7,29,M,2022-11-25_17h19.18.478,dynamic target,2022.1.3,120.10122525372583,
1,5,3,2,L,0,23,23,23,,,,,,,None,352.52168979646376,None,351.5391885200261,None,352.02211057145905,None,1,[0.008691312788869254],[0.5171080955551588],352.52168979646376,None,[3 1 1 3 1 2 2 3],space,0,2.4417994696705136,0.0030407407684833743,None,352.5383373486584,None,1,354.9779102748653,None,None,355.47748571546106,None,,,,,,,,,,,,,,,,,,,,,,,,,,,,,,,,,,,,,,,,,,,,,,07_DS,7,29,M,2022-11-25_17h19.18.478,dynamic target,2022.1.3,120.10122525372583,
1,4,3,1,L,0,24,24,24,,,,,,,None,356.50993215003473,None,355.52748731902466,None,356.01037569562686,None,1,[0.009268595564208226],[0.5176087280051433],356.50993215003473,None,[2 0 3 2 1 1 0 0],space,0,2.0047669083542132,0.002457685175613733,None,356.5265829093514,None,1,358.5332001734423,None,None,359.03276695479724,None,,,,,,,,,,,,,,,,,,,,,,,,,,,,,,,,,,,,,,,,,,,,,,07_DS,7,29,M,2022-11-25_17h19.18.478,dynamic target,2022.1.3,120.10122525372583,
1,1,1,0,L,0,25,25,25,,,,,,,None,360.06521820005946,None,359.074399882491,None,359.5656415407575,None,1,[0.00862973596304073],[0.5177062246475543],360.06521820005946,None,[1 3 0 2 3 2 1 3],space,0,2.48075322803561,0.002404767586995149,None,360.08187441149494,None,1,362.5630947616082,None,None,363.0626442244778,None,,,,,,,,,,,,,,,,,,,,,,,,,,,,,,,,,,,,,,,,,,,,,,07_DS,7,29,M,2022-11-25_17h19.18.478,dynamic target,2022.1.3,120.10122525372583,
1,2,3,2,L,0,26,26,26,,,,,,,None,364.09509033834183,None,363.10428324571694,None,363.5955188104381,None,1,[0.009661147843871731],[0.5175862781179603],364.09509033834183,None,[2 3 3 2 1 3 3 1],space,0,2.8194228991378623,0.002595591613498982,None,364.111732759131,None,1,366.93432542584196,None,None,367.43389733859874,None,,,,,,,,,,,,,,,,,,,,,,,,,,,,,,,,,,,,,,,,,,,,,,07_DS,7,29,M,2022-11-25_17h19.18.478,dynamic target,2022.1.3,120.10122525372583,
1,3,3,2,L,0,27,27,27,,,,,,,None,368.45802897703106,None,367.4755373219741,None,367.9584475070369,None,1,[0.008648978724522749],[0.5170407459008857],368.45802897703106,None,[1 3 3 1 1 1 3 3],space,0,2.5046713359843125,0.0029429234127746895,None,368.47467011497065,None,1,370.9808569826855,None,None,371.4804276125891,None,,,,,,,,,,,,,,,,,,,,,,,,,,,,,,,,,,,,,,,,,,,,,,07_DS,7,29,M,2022-11-25_17h19.18.478,dynamic target,2022.1.3,120.10122525372583,
1,3,4,0,L,0,28,28,28,,,,,,,None,372.5128865549559,None,371.5220736895062,None,372.0133073299512,None,1,[0.008624604561191518],[0.5175740910381137],372.5128865549559,None,[0 3 0 3 3 3 3 3],space,0,1.648691520356806,0.0025593510836188216,None,372.52952705147254,None,1,374.1781138632541,None,None,374.6776860967242,None,,,,,,,,,,,,,,,,,,,,,,,,,,,,,,,,,,,,,,,,,,,,,,07_DS,7,29,M,2022-11-25_17h19.18.478,dynamic target,2022.1.3,120.10122525372583,
1,3,3,0,L,0,29,29,29,,,,,,,None,375.7101265018995,None,374.7276729475052,None,375.20223498230916,None,1,[0.008642243756185053],[0.5163916234996577],375.7101265018995,None,[2 1 1 3 1 3 1 0],space,0,1.4516065417665232,0.002648509202117566,None,375.71846689091035,None,1,377.1672057846299,None,None,377.6667882809037,None,,,,,,,,,,,,,,,,,,,,,,,,,,,,,,,,,,,,,,,,,,,,,,07_DS,7,29,M,2022-11-25_17h19.18.478,dynamic target,2022.1.3,120.10122525372583,
1,4,3,2,L,0,30,30,30,,,,,,,None,378.6992415145854,None,377.7084340371075,None,378.19134326003405,None,1,[0.00863935734014376],[0.5164801401879231],378.6992415145854,None,[2 3 2 1 1 2 0 0],space,0,1.5835069951281184,0.0034073153292411007,None,378.7075616987022,None,1,380.28953681396524,None,None,380.7891109717078,None,,,,,,,,,,,,,,,,,,,,,,,,,,,,,,,,,,,,,,,,,,,,,,07_DS,7,29,M,2022-11-25_17h19.18.478,dynamic target,2022.1.3,120.10122525372583,
1,3,4,1,L,0,31,31,31,,,,,,,None,381.81323202662315,None,380.8307432579786,None,381.3136473495033,None,1,[0.008633263802039437],[0.5172716590059281],381.81323202662315,None,[1 2 1 2 1 0 1 1],space,0,1.7879071085299074,0.002888402264943579,None,381.8298888794816,None,0,383.62834952291087,None,None,384.1279147006993,None,,,,,,,,,,,,,,,,,,,,,,,,,,,,,,,,,,,,,,,,,,,,,,07_DS,7,29,M,2022-11-25_17h19.18.478,dynamic target,2022.1.3,120.10122525372583,
1,8,1,0,L,0,32,32,32,,,,,,,None,385.1520370384642,None,384.17792464279046,None,384.6524651898508,None,1,[0.008654110122733982],[0.517750482991687],385.1520370384642,None,[0 1 1 2 2 3 2 2],space,0,1.4083626102910785,0.0023967497727426235,None,385.1686813835295,None,1,386.58414152920886,None,None,387.08371376267894,None,,,,,,,,,,,,,,,,,,,,,,,,,,,,,,,,,,,,,,,,,,,,,,07_DS,7,29,M,2022-11-25_17h19.18.478,dynamic target,2022.1.3,120.10122525372583,
1,7,3,1,L,0,33,33,33,,,,,,,None,388.11616212152876,None,387.1253422003974,None,387.6165883486392,None,1,[0.009517789290839573],[0.5175067413802026],388.11616212152876,None,[3 2 2 0 1 3 0 3],space,0,2.396463850294822,0.0026792976132128388,None,388.13281480512524,None,1,390.53075730519413,None,None,391.0303292179509,None,,,,,,,,,,,,,,,,,,,,,,,,,,,,,,,,,,,,,,,,,,,,,,07_DS,7,29,M,2022-11-25_17h19.18.478,dynamic target,2022.1.3,120.10122525372583,
1,8,2,2,L,0,34,34,34,,,,,,,None,392.06277725608743,None,391.08033595291636,None,391.5632041246208,None,1,[0.008618190306151519],[0.5174740286893211],392.06277725608743,None,[3 3 0 2 1 1 1 1],space,0,4.065811995420518,0.0026796183265105356,None,392.07943475037246,None,1,396.1426100108547,None,None,396.6421848100239,None,,,,,,,,,,,,,,,,,,,,,,,,,,,,,,,,,,,,,,,,,,,,,,07_DS,7,29,M,2022-11-25_17h19.18.478,dynamic target,2022.1.3,120.10122525372583,
1,1,4,2,L,0,35,35,35,,,,,,,None,397.67462835818515,None,396.6921986006673,None,397.175064527386,None,1,[0.008578101227612933],[0.5173653071033186],397.67462835818515,None,[0 2 2 0 1 1 3 2],space,0,1.6060425108444178,0.002579555981355952,None,397.69130734021746,None,1,399.2982374274252,None,None,399.79783788360726,None,,,,,,,,,,,,,,,,,,,,,,,,,,,,,,,,,,,,,,,,,,,,,,07_DS,7,29,M,2022-11-25_17h19.18.478,dynamic target,2022.1.3,120.10122525372583,
1,2,2,2,L,0,36,36,36,,,,,,,None,400.83025737831485,None,399.8394419471624,None,400.3306906611069,None,1,[0.008643847319035558],[0.5177431066003919],400.83025737831485,None,[3 1 2 1 1 1 0 0],space,0,1.4581170085439226,0.002482380048604682,None,400.8468946677058,None,1,402.3039948609003,None,None,402.8035978827851,None,,,,,,,,,,,,,,,,,,,,,,,,,,,,,,,,,,,,,,,,,,,,,,07_DS,7,29,M,2022-11-25_17h19.18.478,dynamic target,2022.1.3,120.10122525372583,
1,3,4,2,L,0,37,37,37,,,,,,,None,403.836007114689,None,402.8452013049173,None,403.33643526607557,None,1,[0.008706386288395151],[0.5177338059365866],403.836007114689,None,[0 2 0 0 2 3 2 3],space,0,3.156109603929508,0.002367564920859877,None,403.85266396755105,None,1,407.0082788763284,None,None,407.5078350741627,None,,,,,,,,,,,,,,,,,,,,,,,,,,,,,,,,,,,,,,,,,,,,,,07_DS,7,29,M,2022-11-25_17h19.18.478,dynamic target,2022.1.3,120.10122525372583,
1,4,2,2,L,0,38,38,38,,,,,,,None,408.54031358000066,None,407.54949686599866,None,408.0407446178033,None,1,[0.008547312812879682],[0.5169458149575803],408.54031358000066,None,[0 3 1 1 2 0 1 1],space,0,1.9082102717802627,0.003056776404264383,None,408.55696209433154,None,1,410.46366293613755,None,None,410.96327301370036,None,,,,,,,,,,,,,,,,,,,,,,,,,,,,,,,,,,,,,,,,,,,,,,07_DS,7,29,M,2022-11-25_17h19.18.478,dynamic target,2022.1.3,120.10122525372583,
1,5,2,2,L,0,39,39,39,,,,,,,None,411.995681283468,None,411.0048661730252,None,411.49611456625644,None,1,[0.008637433067633538],[0.5177395787650312],411.995681283468,None,[1 1 0 0 2 3 2 2],space,0,1.2839613808064314,0.0023880905318947043,None,412.01233492920073,None,1,413.2945713611298,None,None,413.79414070818746,None,,,,,,,,,,,,,,,,,,,,,,,,,,,,,,,,,,,,,,,,,,,,,,07_DS,7,29,M,2022-11-25_17h19.18.478,dynamic target,2022.1.3,120.10122525372583,
1,6,4,2,L,0,40,40,40,,,,,,,None,414.82658585990794,None,413.84415546096716,None,414.32701978412297,None,1,[0.009130689122684998],[0.5176302157524333],414.82658585990794,None,[1 2 1 1 2 2 2 3],space,0,3.23655203344606,0.0024766072201600764,None,414.8432488063081,None,1,418.08213066089957,None,None,418.58169840439075,None,,,,,,,,,,,,,,,,,,,,,,,,,,,,,,,,,,,,,,,,,,,,,,07_DS,7,29,M,2022-11-25_17h19.18.478,dynamic target,2022.1.3,120.10122525372583,
1,7,4,2,L,0,41,41,41,,,,,,,None,419.614156063908,None,418.62333453921383,None,419.11460377876574,None,1,[0.008647375158034265],[0.5177453515898378],419.614156063908,None,[1 1 3 0 1 1 3 2],space,0,2.928824398022698,0.002418558233330259,None,419.63079880541045,None,1,422.561618841999,None,None,423.06119428259115,None,,,,,,,,,,,,,,,,,,,,,,,,,,,,,,,,,,,,,,,,,,,,,,07_DS,7,29,M,2022-11-25_17h19.18.478,dynamic target,2022.1.3,120.10122525372583,
1,8,2,2,L,0,42,42,42,,,,,,,None,424.0936378307524,None,423.10282624815227,424.1019863017209,423.5940797727817,None,2,"[0.00863935734378174, 0.2833720754206297]","[0.14184382833263953, 0.7836376254927018]",424.0936378307524,None,[2 3 3 3 0 3 0 0],space,0,2.5038185610501387,0.0028034134120389353,None,424.3767283204688,None,1,426.8829007561144,None,None,427.382485497374,None,,,,,,,,,,,,,,,,,,,,,,,,,,,,,,,,,,,,,,,,,,,,,,07_DS,7,29,M,2022-11-25_17h19.18.478,dynamic target,2022.1.3,120.10122525372583,
1,1,3,2,L,0,43,43,43,,,,,,,None,428.41495085399583,None,427.43249864659447,None,427.91536072476083,None,1,[0.009210225856804755],[0.5173643449634255],428.41495085399583,None,[3 0 0 3 0 2 0 0],space,0,3.36000716061244,0.002666148397111101,None,428.4315884640964,None,1,431.7953522964308,None,None,432.29493960339676,None,,,,,,,,,,,,,,,,,,,,,,,,,,,,,,,,,,,,,,,,,,,,,,07_DS,7,29,M,2022-11-25_17h19.18.478,dynamic target,2022.1.3,120.10122525372583,
1,2,1,2,L,0,44,44,44,,,,,,,None,433.3273866793934,None,432.3365757382162,None,432.8278141893534,None,1,[0.00855276492802659],[0.5177908927871613],433.3273866793934,None,[0 2 2 3 3 0 3 0],space,0,2.4309818320107297,0.0022482598142232746,None,433.3440406458394,None,1,435.7752859473985,None,None,436.27486716082274,None,,,,,,,,,,,,,,,,,,,,,,,,,,,,,,,,,,,,,,,,,,,,,,07_DS,7,29,M,2022-11-25_17h19.18.478,dynamic target,2022.1.3,120.10122525372583,
1,3,2,2,L,0,45,45,45,,,,,,,None,437.298981801483,None,436.31651163417337,None,436.799409311443,None,1,[0.008654110126371961],[0.5169952047072002],437.298981801483,None,[3 1 1 2 1 1 2 0],space,0,2.8433410070902028,0.002820090470777359,None,437.31563833362816,None,1,440.1631911036893,None,None,440.6627630164461,None,,,,,,,,,,,,,,,,,,,,,,,,,,,,,,,,,,,,,,,,,,,,,,07_DS,7,29,M,2022-11-25_17h19.18.478,dynamic target,2022.1.3,120.10122525372583,
1,4,3,2,L,0,46,46,46,,,,,,,None,441.69519566037343,None,440.7044001134054,441.7035377170905,441.1873115813214,None,1,[0.08412453144046594],[0.5916878978459863],441.69519566037343,None,[2 3 3 3 2 3 3 1],space,0,2.1247455104057735,0.002772624993667705,None,441.7784738311311,None,1,443.9016560318378,None,None,444.4012247374652,None,,,,,,,,,,,,,,,,,,,,,,,,,,,,,,,,,,,,,,,,,,,,,,07_DS,7,29,M,2022-11-25_17h19.18.478,dynamic target,2022.1.3,120.10122525372583,
1,8,1,0,L,0,47,47,47,,,,,,,None,445.4336679649132,None,444.4512481494894,None,444.93409643701307,None,1,[0.00865218585022376],[0.5174993649889075],445.4336679649132,None,[2 1 3 2 1 2 0 1],space,0,1.940973313885479,0.0025907809249474667,None,445.4503280248973,None,1,447.39034257242383,None,None,447.8898971666989,None,,,,,,,,,,,,,,,,,,,,,,,,,,,,,,,,,,,,,,,,,,,,,,07_DS,7,29,M,2022-11-25_17h19.18.478,dynamic target,2022.1.3,120.10122525372583,
1,1,1,2,L,0,48,48,48,,,,,,,None,448.9223285277767,None,447.9315294529697,None,448.4227736769317,None,1,[0.008757379597227555],[0.5174830086434667],448.9223285277767,None,[2 3 0 0 2 0 0 2],space,0,5.618925858674629,0.0025818009708018508,None,448.9390001334177,None,0,454.5675430460542,None,None,455.0670678140508,None,,,,,,,,,,,,,,,,,,,,,,,,,,,,,,,,,,,,,,,,,,,,,,07_DS,7,29,M,2022-11-25_17h19.18.478,dynamic target,2022.1.3,120.10122525372583,
1,2,2,2,L,0,49,49,49,,,,,,,None,456.0995232285786,None,455.108706514573,None,455.59994881426246,None,1,[0.00865956224151887],[0.5176257257735415],456.0995232285786,None,[3 1 2 2 2 0 1 1],space,0,2.8255982211958326,0.002284821053763153,None,456.116177195021,None,1,458.9554081132628,None,None,459.45498419528155,None,,,,,,,,,,,,,,,,,,,,,,,,,,,,,,,,,,,,,,,,,,,,,,07_DS,7,29,M,2022-11-25_17h19.18.478,dynamic target,2022.1.3,120.10122525372583,
1,3,4,2,L,0,50,50,50,,,,,,,None,460.4874268454463,None,459.5050207565255,None,459.98786455407026,None,1,[0.008643526605737861],[0.5090732815551746],460.4874268454463,None,[1 3 1 3 2 1 3 2],space,0,3.7257485071459087,0.002386486969044199,None,460.4957377288956,None,1,464.22588529519635,None,None,464.725458170093,None,,,,,,,,,,,,,,,,,,,,,,,,,,,,,,,,,,,,,,,,,,,,,,07_DS,7,29,M,2022-11-25_17h19.18.478,dynamic target,2022.1.3,120.10122525372583,
1,4,1,2,L,0,51,51,51,,,,,,,None,465.7579251302741,None,464.7670939842028,465.7662450578209,465.25833371818953,None,2,"[0.00874711679352913, 0.22503380311172805]","[0.09200540336678387, 0.7254395046147692]",465.7579251302741,None,[1 0 1 2 3 0 1 3],space,0,3.391053748615377,0.002764927892712876,None,465.9827235303019,None,1,469.37147889582775,None,None,469.8710540157066,None,,,,,,,,,,,,,,,,,,,,,,,,,,,,,,,,,,,,,,,,,,,,,,07_DS,7,29,M,2022-11-25_17h19.18.478,dynamic target,2022.1.3,120.10122525372583,
1,5,3,2,L,0,52,52,52,,,,,,,None,470.8951651285315,None,469.92100751237376,None,470.39559520419425,None,1,[0.008651223710330669],[0.5170994363143109],470.8951651285315,None,[2 0 0 3 0 1 0 1],space,0,1.4378434791397012,0.0028454267703637015,None,470.9118053043312,None,1,472.3522483239576,None,None,472.8518260095392,None,,,,,,,,,,,,,,,,,,,,,,,,,,,,,,,,,,,,,,,,,,,,,,07_DS,7,29,M,2022-11-25_17h19.18.478,dynamic target,2022.1.3,120.10122525372583,
1,6,4,2,L,0,53,53,53,,,,,,,None,473.88428302762986,None,472.8934538058347,None,473.38469674694716,None,1,[0.008663731503474992],[0.5175400954940415],473.88428302762986,None,[1 1 1 1 1 2 2 1],space,0,2.2240448815537093,0.0024323488723894116,None,473.90092063773045,None,1,476.1240038665128,None,None,476.6235924563247,None,,,,,,,,,,,,,,,,,,,,,,,,,,,,,,,,,,,,,,,,,,,,,,07_DS,7,29,M,2022-11-25_17h19.18.478,dynamic target,2022.1.3,120.10122525372583,
1,7,2,2,L,0,54,54,54,,,,,,,None,477.65604152074445,None,476.6652131969422,None,477.1481387762142,None,1,[0.0085665555743617],[0.516375267154217],477.65604152074445,None,[3 0 1 3 2 2 1 3],space,0,2.2695405365411716,0.00350256698220619,None,477.66436042200803,None,1,479.93740875725416,None,None,480.43698708426234,None,,,,,,,,,,,,,,,,,,,,,,,,,,,,,,,,,,,,,,,,,,,,,,07_DS,7,29,M,2022-11-25_17h19.18.478,dynamic target,2022.1.3,120.10122525372583,
1,8,4,2,L,0,55,55,55,,,,,,,None,481.4694222938924,None,480.4869428259153,481.4860813917403,480.96985589739415,None,4,"[0.7925309872553044, 1.0419152189679153, 1.0583302544910111, 1.1003471393705695]","[0.8089607755573525, 1.050121934946219, 1.0666335049754707, 1.6076388621622755]",481.4694222938924,None,[2 1 0 3 0 0 2 0],space,0,3.1800524067548395,0.003055172837775899,None,482.5768093966253,None,1,485.7574155178736,None,None,486.25699544844827,None,,,,,,,,,,,,,,,,,,,,,,,,,,,,,,,,,,,,,,,,,,,,,,07_DS,7,29,M,2022-11-25_17h19.18.478,dynamic target,2022.1.3,120.10122525372583,
1,1,1,2,L,0,56,56,56,,,,,,,None,487.2894367516201,None,486.29862356545345,None,486.7898629787305,None,1,[0.009250635655916994],[0.5174935921641008],487.2894367516201,None,[0 3 0 3 3 3 0 2],space,0,2.6902562003997446,0.002602326581836678,None,487.3060910387758,None,1,489.9954481253699,None,None,490.4950226038294,None,,,,,,,,,,,,,,,,,,,,,,,,,,,,,,,,,,,,,,,,,,,,,,07_DS,7,29,M,2022-11-25_17h19.18.478,dynamic target,2022.1.3,120.10122525372583,
1,8,2,1,L,0,57,57,57,,,,,,,None,491.5274744905182,None,490.5366542486736,None,491.0278981519259,None,1,[0.008683615691552404],[0.5176786433621601],491.5274744905182,None,[2 2 1 0 0 2 2 1],space,0,1.4605412754572171,0.0024903978664951865,None,491.5441188355835,None,1,493.0095293349441,None,None,493.50910862409216,None,,,,,,,,,,,,,,,,,,,,,,,,,,,,,,,,,,,,,,,,,,,,,,07_DS,7,29,M,2022-11-25_17h19.18.478,dynamic target,2022.1.3,120.10122525372583,
1,1,4,2,L,0,58,58,58,,,,,,,None,494.5415496065507,None,493.5590868156323,None,494.04196813655653,None,1,[0.008449495453533018],[0.5172213071200531],494.5415496065507,None,[0 1 2 3 1 3 3 1],space,0,2.8140073453469086,0.0028617831121664494,None,494.55820229014716,None,0,497.38076609271957,None,None,497.88035275825894,None,,,,,,,,,,,,,,,,,,,,,,,,,,,,,,,,,,,,,,,,,,,,,,07_DS,7,29,M,2022-11-25_17h19.18.478,dynamic target,2022.1.3,120.10122525372583,
1,4,2,0,L,0,59,59,59,,,,,,,None,498.912802079245,None,497.93036045536064,None,498.41322862706875,None,1,[0.009190020962705603],[0.5176254050602438],498.912802079245,None,[1 1 2 0 1 2 2 2],space,0,1.7222540221191593,0.002576028142357245,None,498.92945604569104,None,1,500.66131621754175,None,space,501.1691932409194,None,11.87219424128125,,,,,,,,,,,,,,,,,,,,,,,,,,,,,,,,,,,,,,,,,,,,,07_DS,7,29,M,2022-11-25_17h19.18.478,dynamic target,2022.1.3,120.10122525372583,
1,8,1,0,L,0,60,60,60,,,,,,,None,514.0831236514044,None,513.0923293231426,None,513.5752250761398,None,1,[0.008620756012533093],[0.5165186257108871],514.0831236514044,None,[3 2 2 1 1 2 1 3],space,0,6.639725677534443,0.0032399033261754084,None,514.0914483254965,None,1,520.7357484920103,None,None,521.2353345161231,None,,,,,,,,,,,,,,,,,,,,,,,,,,,,,,,,,,,,,,,,,,,,,,07_DS,7,29,M,2022-11-25_17h19.18.478,dynamic target,2022.1.3,120.10122525372583,
1,1,2,2,L,0,61,61,61,,,,,,,None,522.2677694050399,None,521.2769536531741,522.2761092167711,521.7681969150035,None,2,"[0.009426065469597233, 0.766962171299383]","[0.05019858527157339, 1.2746810833414202]",522.2677694050399,None,[1 1 1 3 3 1 3 3],space,0,5.1768520152290876,0.0030705670469615143,None,523.0421063637114,None,1,528.2210014829761,None,None,528.720568905754,None,,,,,,,,,,,,,,,,,,,,,,,,,,,,,,,,,,,,,,,,,,,,,,07_DS,7,29,M,2022-11-25_17h19.18.478,dynamic target,2022.1.3,120.10122525372583,
1,2,2,2,L,0,62,62,62,,,,,,,None,529.7529996254088,None,528.7705717921708,None,529.2534438124276,None,1,[0.00863935734014376],[0.5172411913044925],529.7529996254088,None,[0 1 1 2 1 1 2 1],space,0,1.536726244554302,0.0022203578118933365,None,529.7696904738077,None,1,531.3100111094864,None,None,531.8095827015298,None,,,,,,,,,,,,,,,,,,,,,,,,,,,,,,,,,,,,,,,,,,,,,,07_DS,7,29,M,2022-11-25_17h19.18.478,dynamic target,2022.1.3,120.10122525372583,
1,3,3,2,L,0,63,63,63,,,,,,,None,532.8420336260824,None,531.8596102828196,None,532.3424595324796,None,1,[0.009626510876842076],[0.5175176456104964],532.8420336260824,None,[3 2 1 0 0 2 2 1],space,0,2.1766172535717487,0.0026228521892335266,None,532.858678933284,None,1,535.0401452058613,None,None,535.5397123079259,None,,,,,,,,,,,,,,,,,,,,,,,,,,,,,,,,,,,,,,,,,,,,,,07_DS,7,29,M,2022-11-25_17h19.18.478,dynamic target,2022.1.3,120.10122525372583,
1,4,1,2,L,0,64,64,64,,,,,,,None,536.5721674658838,None,535.581334972816,None,536.0642743427343,None,1,[0.008631660239188932],[0.5167559530673316],536.5721674658838,None,[3 0 0 1 2 2 2 0],space,0,3.3349004915871774,0.0033531148910697084,None,536.5804898949864,None,0,539.9276212486257,None,None,540.4271957270815,None,,,,,,,,,,,,,,,,,,,,,,,,,,,,,,,,,,,,,,,,,,,,,,07_DS,7,29,M,2022-11-25_17h19.18.478,dynamic target,2022.1.3,120.10122525372583,
1,5,3,2,L,0,65,65,65,,,,,,,None,541.4596444066447,None,540.4771700700694,None,540.9600693509055,None,1,[0.00941997193149291],[0.5178915965589113],541.4596444066447,None,[2 2 0 2 2 3 2 1],space,0,1.6530862457875628,0.0023544157011201605,None,541.4762938831118,None,1,543.1415163807214,None,None,543.6411043291104,None,,,,,,,,,,,,,,,,,,,,,,,,,,,,,,,,,,,,,,,,,,,,,,07_DS,7,29,M,2022-11-25_17h19.18.478,dynamic target,2022.1.3,120.10122525372583,
1,6,3,2,L,0,66,66,66,,,,,,,None,544.6735334451987,None,543.6827395017935,None,544.1739798772069,None,1,[0.00957263115196838],[0.517648817080044],544.6735334451987,None,[2 0 0 1 2 3 3 2],space,0,1.2078328571369639,0.002653961317264475,None,544.6902031265636,None,1,545.8975105001336,None,None,546.3970593215766,None,,,,,,,,,,,,,,,,,,,,,,,,,,,,,,,,,,,,,,,,,,,,,,07_DS,7,29,M,2022-11-25_17h19.18.478,dynamic target,2022.1.3,120.10122525372583,
1,5,2,1,L,0,67,67,67,,,,,,,None,547.4295189053701,None,546.4470715086609,None,546.9299470567566,None,1,[0.008669504331919597],[0.5174955164366111],547.4295189053701,None,[0 1 3 3 0 0 0 1],space,0,2.755158177784324,0.0021036184116383083,None,547.4461895488748,None,1,550.202152559159,None,None,550.7017142091121,None,,,,,,,,,,,,,,,,,,,,,,,,,,,,,,,,,,,,,,,,,,,,,,07_DS,7,29,M,2022-11-25_17h19.18.478,dynamic target,2022.1.3,120.10122525372583,
1,6,3,2,L,0,68,68,68,,,,,,,None,551.7341613492521,None,550.7433535510609,None,551.2262643775503,None,1,[0.008601513251051074],[0.516605538836302],551.7341613492521,None,[2 0 2 0 2 1 2 0],space,0,1.499375408009655,0.002883912286051782,None,551.7424860233441,None,1,553.2412009277577,None,None,553.7407741233641,None,,,,,,,,,,,,,,,,,,,,,,,,,,,,,,,,,,,,,,,,,,,,,,07_DS,7,29,M,2022-11-25_17h19.18.478,dynamic target,2022.1.3,120.10122525372583,
1,7,1,2,L,0,69,69,69,,,,,,,None,554.7732192750882,None,553.7907888761474,None,554.2736480679014,None,1,[0.008649620147480164],[0.5175997480473598],554.7732192750882,None,[0 2 2 2 3 0 1 2],space,0,3.6821453775046393,0.002586611659353366,None,554.7898770900865,None,1,558.4700496078331,None,None,558.9696218413031,None,,,,,,,,,,,,,,,,,,,,,,,,,,,,,,,,,,,,,,,,,,,,,,07_DS,7,29,M,2022-11-25_17h19.18.478,dynamic target,2022.1.3,120.10122525372583,
1,6,1,1,L,0,70,70,70,,,,,,,None,560.0020679551635,None,559.0112599004024,560.0104064840416,559.502497710113,None,5,"[0.5671540216062567, 0.6003474600838672, 0.6503395064100914, 0.6671130986724165, 0.7003835081850411]","[0.5836299925322237, 0.6094970712510985, 0.6591180530413112, 0.6916302978534077, 1.2082531551714055]",560.0020679551635,None,[3 1 2 0 3 1 0 3],space,0,3.267517801858048,0.0026683933865569998,None,560.7098009144174,None,1,563.9819865326353,None,None,564.4815603696683,None,,,,,,,,,,,,,,,,,,,,,,,,,,,,,,,,,,,,,,,,,,,,,,07_DS,7,29,M,2022-11-25_17h19.18.478,dynamic target,2022.1.3,120.10122525372583,
1,7,4,2,L,0,71,71,71,,,,,,,None,565.5139910893195,None,564.5315661424938,None,565.0144349556285,None,1,[0.009473530943068909],[0.5176164251060982],565.5139910893195,None,[0 2 3 3 0 3 3 3],space,0,1.5494104298304592,0.002500019243598217,None,565.5306758441802,None,1,567.0793375744397,None,None,567.5789027522281,None,,,,,,,,,,,,,,,,,,,,,,,,,,,,,,,,,,,,,,,,,,,,,,07_DS,7,29,M,2022-11-25_17h19.18.478,dynamic target,2022.1.3,120.10122525372583,
1,8,2,2,L,0,72,72,72,,,,,,,None,568.6113504696514,None,567.6205299070971,None,568.1117789417513,None,1,[0.008633263802039437],[0.5175808260028134],568.6113504696514,None,[0 0 2 2 0 0 0 0],space,0,1.2363753207755508,0.0025792352680582553,None,568.6280063603735,None,1,569.8686059519132,None,None,570.3681781853833,None,,,,,,,,,,,,,,,,,,,,,,,,,,,,,,,,,,,,,,,,,,,,,,07_DS,7,29,M,2022-11-25_17h19.18.478,dynamic target,2022.1.3,120.10122525372583,
1,7,4,1,L,0,73,73,73,,,,,,,None,571.4006294306455,None,570.409806943815,None,570.9010678448394,None,1,[0.00867656001355499],[0.5177556143971742],571.4006294306455,None,[3 3 0 1 3 2 2 3],space,0,1.262661891640164,0.0023595471029693726,None,571.4172782656897,None,1,572.6828453369671,None,None,573.1824307196533,None,,,,,,,,,,,,,,,,,,,,,,,,,,,,,,,,,,,,,,,,,,,,,,07_DS,7,29,M,2022-11-25_17h19.18.478,dynamic target,2022.1.3,120.10122525372583,
1,8,1,2,L,0,74,74,74,,,,,,,None,574.2148793992164,None,573.2324448310101,None,573.7153065884668,None,1,[0.009386617814016063],[0.5178861444437644],574.2148793992164,None,[0 3 1 3 2 3 3 1],space,0,0.9281201130434056,0.002392259793850826,None,574.2315304792501,None,1,575.1640650456575,None,None,575.663636637701,None,,,,,,,,,,,,,,,,,,,,,,,,,,,,,,,,,,,,,,,,,,,,,,07_DS,7,29,M,2022-11-25_17h19.18.478,dynamic target,2022.1.3,120.10122525372583,
1,7,3,1,L,0,75,75,75,,,,,,,None,576.6960888451031,None,575.7052548126157,None,576.196510261525,None,1,[0.008621718145150226],[0.5176577970378275],576.6960888451031,None,[0 2 0 1 2 3 3 0],space,0,1.2626776065590093,0.0024150303906935733,None,576.7127206823752,None,1,577.9783182213541,None,None,578.4778734570522,None,,,,,,,,,,,,,,,,,,,,,,,,,,,,,,,,,,,,,,,,,,,,,,07_DS,7,29,M,2022-11-25_17h19.18.478,dynamic target,2022.1.3,120.10122525372583,
1,8,2,2,L,0,76,76,76,,,,,,,None,579.5103477936282,None,578.519519213256,None,579.0107855663919,None,1,[0.008659241528221173],[0.5178354718445917],579.5103477936282,None,[1 0 0 1 0 1 0 2],space,0,1.8567253080727824,0.002425613911327673,None,579.5269866865783,None,1,581.3837278740357,None,None,581.8833058803306,None,,,,,,,,,,,,,,,,,,,,,,,,,,,,,,,,,,,,,,,,,,,,,,07_DS,7,29,M,2022-11-25_17h19.18.478,dynamic target,2022.1.3,120.10122525372583,
1,1,2,2,L,0,77,77,77,,,,,,,None,582.9157468627891,None,581.933302031779,None,582.4161843148431,None,1,[0.008682332838361617],[0.5174961578632065],582.9157468627891,None,[3 1 1 0 3 2 0 1],space,0,3.186960236504092,0.0026690348095144145,None,582.932402432798,None,1,586.121336499411,None,None,586.620902960049,None,,,,,,,,,,,,,,,,,,,,,,,,,,,,,,,,,,,,,,,,,,,,,,07_DS,7,29,M,2022-11-25_17h19.18.478,dynamic target,2022.1.3,120.10122525372583,
1,8,2,1,L,0,78,78,78,,,,,,,None,587.6533368868295,None,586.6709186749722,None,587.1537781874358,None,1,[0.007810635859641479],[0.5164564074548252],587.6533368868295,None,[1 1 1 2 2 3 3 2],space,0,0.9607715471429401,0.002219395675638225,None,587.670021320977,None,1,588.6358413703929,None,None,589.1354152074258,None,,,,,,,,,,,,,,,,,,,,,,,,,,,,,,,,,,,,,,,,,,,,,,07_DS,7,29,M,2022-11-25_17h19.18.478,dynamic target,2022.1.3,120.10122525372583,
1,1,2,2,L,0,79,79,79,,,,,,,None,590.1678760740688,None,589.1854222631046,None,589.6682881898232,None,1,[0.008641923046525335],[0.5173569685757684],590.1678760740688,None,[0 3 2 0 1 1 3 3],space,0,2.8625077571414295,0.00281784548133146,None,590.1845124013162,None,0,593.048722344949,None,None,593.5483090104884,None,,,,,,,,,,,,,,,,,,,,,,,,,,,,,,,,,,,,,,,,,,,,,,07_DS,7,29,M,2022-11-25_17h19.18.478,dynamic target,2022.1.3,120.10122525372583,
1,8,3,1,L,0,80,80,80,,,,,,,None,594.5807410129928,None,593.5982965026924,None,594.0811688436661,None,1,[0.008577139091357822],[0.5173101445252541],594.5807410129928,None,[0 2 2 3 3 1 1 2],space,0,3.4729127659011283,0.002139217514923075,None,594.597400431554,None,1,598.0777388218812,None,None,598.5773226010045,None,,,,,,,,,,,,,,,,,,,,,,,,,,,,,,,,,,,,,,,,,,,,,,07_DS,7,29,M,2022-11-25_17h19.18.478,dynamic target,2022.1.3,120.10122525372583,
1,1,2,2,L,0,81,81,81,,,,,,,None,599.6097453028451,None,598.6189686779217,599.6180857559993,599.1101898105771,None,2,"[1.0507133290739148, 1.0750435527770605]","[1.0666607655548432, 1.5825517566081544]",599.6097453028451,None,[3 2 2 3 3 1 2 3],space,0,1.37963541616773,0.0032944244776444975,None,600.6921671708296,None,1,602.0743116865124,None,None,602.573884561409,None,,,,,,,,,,,,,,,,,,,,,,,,,,,,,,,,,,,,,,,,,,,,,,07_DS,7,29,M,2022-11-25_17h19.18.478,dynamic target,2022.1.3,120.10122525372583,
1,3,1,0,L,0,82,82,82,,,,,,,None,603.6063297131295,None,602.6239025213144,None,603.1067777487006,None,1,[0.008643205892440164],[0.5174102068704087],603.6063297131295,None,[1 2 3 1 1 2 1 1],space,0,2.6392269693678827,0.0027694178679666948,None,603.6229836795756,None,1,606.2623868846495,None,None,606.7619616838186,None,,,,,,,,,,,,,,,,,,,,,,,,,,,,,,,,,,,,,,,,,,,,,,07_DS,7,29,M,2022-11-25_17h19.18.478,dynamic target,2022.1.3,120.10122525372583,
1,4,4,2,L,0,83,83,83,,,,,,,None,607.7944065148295,None,606.8036237963679,None,607.2948401183312,None,1,[0.009101504270802252],[0.5176340643010917],607.7944065148295,None,[1 2 3 1 3 2 2 2],space,0,3.139230817916541,0.0025404290354344994,None,607.8110591984259,None,1,610.9500400249381,None,None,611.4496023163177,None,,,,,,,,,,,,,,,,,,,,,,,,,,,,,,,,,,,,,,,,,,,,,,07_DS,7,29,M,2022-11-25_17h19.18.478,dynamic target,2022.1.3,120.10122525372583,
1,7,3,0,L,0,84,84,84,,,,,,,None,612.482078256453,None,611.4912214533688,None,611.9824913343473,None,1,[0.008696764907654142],[0.5177694050398713],612.482078256453,None,[1 2 0 1 3 1 3 2],space,0,2.14714279897089,0.0023226651464938186,None,612.4987033587604,None,1,614.6468690748334,None,None,615.1464329697759,None,,,,,,,,,,,,,,,,,,,,,,,,,,,,,,,,,,,,,,,,,,,,,,07_DS,7,29,M,2022-11-25_17h19.18.478,dynamic target,2022.1.3,120.10122525372583,
1,6,2,1,L,0,85,85,85,,,,,,,None,616.1788810079124,None,615.204772460791,None,615.6793069143096,None,1,[0.008228524442529306],[0.5168945009354502],616.1788810079124,None,[3 3 3 0 0 0 1 3],space,0,1.5057123692458845,0.002674807641596999,None,616.195532729369,None,1,617.7025771827066,None,None,618.202146209051,None,,,,,,,,,,,,,,,,,,,,,,,,,,,,,,,,,,,,,,,,,,,,,,07_DS,7,29,M,2022-11-25_17h19.18.478,dynamic target,2022.1.3,120.10122525372583,
1,7,4,2,L,0,86,86,86,,,,,,,None,619.2345939264742,None,618.2521462090481,None,618.7350256056998,None,1,[0.008094787266600179],[0.5169224029341422],619.2345939264742,None,[1 0 1 2 3 2 2 3],space,0,2.3536310724375653,0.002294763151439838,None,619.2512507793326,None,1,621.6075577218653,None,None,622.1071184096785,None,,,,,,,,,,,,,,,,,,,,,,,,,,,,,,,,,,,,,,,,,,,,,,07_DS,7,29,M,2022-11-25_17h19.18.478,dynamic target,2022.1.3,120.10122525372583,
1,8,4,2,L,0,87,87,87,,,,,,,None,623.1395757484788,None,622.1571443874018,None,622.6400058241416,None,1,[0.009336265928141074],[0.517570563195477],623.1395757484788,None,[2 2 3 2 2 0 1 2],space,0,2.3054353376574,0.002719707405049121,None,623.1562143207193,None,1,625.4625840587869,None,None,625.9621546886905,None,,,,,,,,,,,,,,,,,,,,,,,,,,,,,,,,,,,,,,,,,,,,,,07_DS,7,29,M,2022-11-25_17h19.18.478,dynamic target,2022.1.3,120.10122525372583,
1,1,1,2,L,0,88,88,88,,,,,,,None,626.9946072168059,None,626.003789540664,None,626.4950369717553,None,1,[0.00916051539752516],[0.517677681222267],626.9946072168059,None,[3 2 0 1 2 0 2 0],space,0,3.666375615830475,0.002271992550959112,None,627.0112987066314,None,1,630.6831214705599,None,None,631.1826831205093,None,,,,,,,,,,,,,,,,,,,,,,,,,,,,,,,,,,,,,,,,,,,,,,07_DS,7,29,M,2022-11-25_17h19.18.478,dynamic target,2022.1.3,120.10122525372583,
1,2,2,2,L,0,89,89,89,,,,,,,None,632.2151164058632,None,631.2242961640222,None,631.7155503300783,None,1,[0.00864577159518376],[0.517576977450517],632.2151164058632,None,[2 3 0 3 0 1 3 3],space,0,1.2128600279138482,0.0026244557520840317,None,632.2317674858969,None,1,633.4473992769854,None,None,633.9469724725917,None,,,,,,,,,,,,,,,,,,,,,,,,,,,,,,,,,,,,,,,,,,,,,,07_DS,7,29,M,2022-11-25_17h19.18.478,dynamic target,2022.1.3,120.10122525372583,
1,3,4,2,L,0,90,90,90,,,,,,,None,634.9710944896433,None,633.988589364657,None,634.4715226410299,None,1,[0.008582911916164448],[0.5171744830768148],634.9710944896433,None,[3 1 2 1 0 2 0 3],space,0,2.505613269033347,0.0029454891082423273,None,634.9877452489636,None,1,637.4939350030945,None,None,637.9935030672954,None,,,,,,,,,,,,,,,,,,,,,,,,,,,,,,,,,,,,,,,,,,,,,,07_DS,7,29,M,2022-11-25_17h19.18.478,dynamic target,2022.1.3,120.10122525372583,
1,4,4,2,L,0,91,91,91,,,,,,,None,639.0176212357983,None,638.0351449749469,None,638.5180516321707,None,1,[0.008692916355357738],[0.5168694853455236],639.0176212357983,None,[3 0 2 3 0 0 0 3],space,0,2.682805404136161,0.003132785303023411,None,639.0342816164957,None,1,641.7153069091764,None,None,642.2148797840731,None,,,,,,,,,,,,,,,,,,,,,,,,,,,,,,,,,,,,,,,,,,,,,,07_DS,7,29,M,2022-11-25_17h19.18.478,dynamic target,2022.1.3,120.10122525372583,
1,5,3,2,L,0,92,92,92,,,,,,,None,643.2473249357936,None,642.2565435001816,None,642.7477835548816,None,1,[0.008638715917186346],[0.5174929507338675],643.2473249357936,None,[1 1 1 3 1 0 2 0],space,0,1.1240024191974953,0.00252631768307765,None,643.2639856372043,None,1,644.3880209335584,None,None,644.8875938084515,None,,,,,,,,,,,,,,,,,,,,,,,,,,,,,,,,,,,,,,,,,,,,,,07_DS,7,29,M,2022-11-25_17h19.18.478,dynamic target,2022.1.3,120.10122525372583,
1,6,4,2,L,0,93,93,93,,,,,,,None,645.920031904494,None,644.9292283397117,None,645.4204706394012,None,1,[0.008638395207526628],[0.5177780642807193],645.920031904494,None,[2 0 3 1 3 3 0 3],space,0,1.2353602652401605,0.0023973911920620594,None,645.9366849088037,None,1,647.1772912353081,None,None,647.6768660344773,None,,,,,,,,,,,,,,,,,,,,,,,,,,,,,,,,,,,,,,,,,,,,,,07_DS,7,29,M,2022-11-25_17h19.18.478,dynamic target,2022.1.3,120.10122525372583,
1,7,4,2,L,0,94,94,94,,,,,,,None,648.7093073376491,None,647.71849126507,None,648.2097364511756,None,1,[0.00903447532618884],[0.5174522202287335],648.7093073376491,None,[3 2 1 1 0 2 1 1],space,0,4.44632151802216,0.0025538989684719127,None,648.7259609833818,None,1,653.1721470044176,None,None,653.6717192378841,None,,,,,,,,,,,,,,,,,,,,,,,,,,,,,,,,,,,,,,,,,,,,,,07_DS,7,29,M,2022-11-25_17h19.18.478,dynamic target,2022.1.3,120.10122525372583,
1,8,1,2,L,0,95,95,95,,,,,,,None,654.7041669553109,None,653.7216775452398,654.7208170732047,654.1962748584374,None,2,"[0.008651865136926062, 1.0000606146895734]","[0.2749261078060954, 1.508227883012296]",654.7041669553109,None,[3 1 0 1 1 3 3 0],space,0,1.2285390279030253,0.0028152797785878647,None,655.7033106525378,None,1,656.9355842229925,None,None,657.435159342875,None,,,,,,,,,,,,,,,,,,,,,,,,,,,,,,,,,,,,,,,,,,,,,,07_DS,7,29,M,2022-11-25_17h19.18.478,dynamic target,2022.1.3,120.10122525372583,
1,1,4,2,L,0,96,96,96,,,,,,,None,658.4676044945954,None,657.4767993262467,None,657.9680320045591,None,1,[0.008635508791485336],[0.517740861610946],658.4676044945954,None,[1 1 1 3 0 1 2 2],space,0,2.6869929491986113,0.002365640644711675,None,658.4842369732942,None,1,661.1736270932925,None,None,661.6731881018189,None,,,,,,,,,,,,,,,,,,,,,,,,,,,,,,,,,,,,,,,,,,,,,,07_DS,7,29,M,2022-11-25_17h19.18.478,dynamic target,2022.1.3,120.10122525372583,
1,2,2,2,L,0,97,97,97,,,,,,,None,662.7056185007605,None,661.7231922710816,None,662.2060668570412,None,1,[0.008665335069963476],[0.5175776188771124],662.7056185007605,None,[0 0 0 3 0 3 1 3],space,0,2.5769830584176816,0.002570576027210336,None,662.722280805734,None,1,665.3034150124331,None,None,665.8029699274178,None,,,,,,,,,,,,,,,,,,,,,,,,,,,,,,,,,,,,,,,,,,,,,,07_DS,7,29,M,2022-11-25_17h19.18.478,dynamic target,2022.1.3,120.10122525372583,
1,1,1,1,L,0,98,98,98,,,,,,,None,666.8354304733475,None,665.8446140800552,None,666.335853172619,None,1,[0.008630377389636124],[0.5177386166251381],666.8354304733475,None,[0 1 1 3 2 2 0 0],space,0,1.3591951161834004,0.002313043769390788,None,666.8520744976995,None,1,668.2092447986834,None,None,668.7088195978525,None,,,,,,,,,,,,,,,,,,,,,,,,,,,,,,,,,,,,,,,,,,,,,,07_DS,7,29,M,2022-11-25_17h19.18.478,dynamic target,2022.1.3,120.10122525372583,
1,2,4,2,L,0,99,99,99,,,,,,,None,669.7412820680584,None,668.7504576569518,None,669.2417349143179,None,1,[0.008663090076879598],[0.517564148944075],669.7412820680584,None,[2 3 0 1 1 3 0 1],space,0,0.9808475175559579,0.0026741662113636266,None,669.7579199988722,None,0,670.7404081260902,None,None,671.2399822838328,None,,,,,,,,,,,,,,,,,,,,,,,,,,,,,,,,,,,,,,,,,,,,,,07_DS,7,29,M,2022-11-25_17h19.18.478,dynamic target,2022.1.3,120.10122525372583,
1,3,1,2,L,0,100,100,100,,,,,,,None,672.2724274355569,None,671.2899886980886,None,671.7728581526462,None,1,[0.008629094540083315],[0.5174618416094745],672.2724274355569,None,[0 0 3 1 0 0 0 3],space,0,1.9380593187524937,0.0027219523944950197,None,672.2890846091286,None,1,674.2374094628212,None,None,674.7369877898294,None,,,,,,,,,,,,,,,,,,,,,,,,,,,,,,,,,,,,,,,,,,,,,,07_DS,7,29,M,2022-11-25_17h19.18.478,dynamic target,2022.1.3,120.10122525372583,
1,4,2,2,L,0,101,101,101,,,,,,,None,675.769427810148,None,674.7786114168593,675.7777749982706,675.2698559615346,None,1,[0.09154229429987026],[0.5996826227637939],675.769427810148,None,[1 1 2 1 1 1 2 3],space,0,1.5420282660707016,0.003200134957296541,None,675.8693407045939,None,1,677.4096930908236,None,None,677.9092710971221,None,,,,,,,,,,,,,,,,,,,,,,,,,,,,,,,,,,,,,,,,,,,,,,07_DS,7,29,M,2022-11-25_17h19.18.478,dynamic target,2022.1.3,120.10122525372583,
1,5,3,2,L,0,102,102,102,,,,,,,None,678.941704382476,None,677.959265645004,None,678.442142475953,None,1,[0.008721780493942788],[0.5174518995154358],678.941704382476,None,[1 1 2 1 0 0 0 1],space,0,2.7877730506443186,0.002545881154219387,None,678.9583605939115,None,1,681.7476341027868,None,None,682.2472307104166,None,,,,,,,,,,,,,,,,,,,,,,,,,,,,,,,,,,,,,,,,,,,,,,07_DS,7,29,M,2022-11-25_17h19.18.478,dynamic target,2022.1.3,120.10122525372583,
1,7,1,0,L,0,103,103,103,,,,,,,None,683.2796508465544,None,682.2888411882304,None,682.780095995713,None,1,[0.008744551094423514],[0.5169336278777337],683.2796508465544,None,[2 2 2 0 2 1 3 3],space,0,1.4587148169230204,0.0031853821710683405,None,683.2963028887243,None,0,684.7617053702706,None,None,685.2612862629816,None,,,,,,,,,,,,,,,,,,,,,,,,,,,,,,,,,,,,,,,,,,,,,,07_DS,7,29,M,2022-11-25_17h19.18.478,dynamic target,2022.1.3,120.10122525372583,
1,8,3,2,L,0,104,104,104,,,,,,,None,686.2937410360828,None,685.3112590024066,686.3103857018614,685.7941598868019,None,2,"[0.00864994086077786, 0.8174625471765467]","[0.17506741379838786, 1.3244983412732836]",686.2937410360828,None,[0 0 1 1 1 1 2 0],space,0,3.605066582254949,0.00327069174090866,None,687.1180244998832,None,1,690.723266034991,None,None,691.2228395513106,None,,,,,,,,,,,,,,,,,,,,,,,,,,,,,,,,,,,,,,,,,,,,,,07_DS,7,29,M,2022-11-25_17h19.18.478,dynamic target,2022.1.3,120.10122525372583,
1,1,4,2,L,0,105,105,105,,,,,,,None,692.2552853444577,None,691.2728510969682,None,691.7557138165575,None,1,[0.008647375161672244],[0.5172254763892852],692.2552853444577,None,[3 2 1 3 1 2 2 2],space,0,3.090222718001314,0.002940678423328791,None,692.2719386694807,None,1,695.3609540688194,None,None,695.860531754401,None,,,,,,,,,,,,,,,,,,,,,,,,,,,,,,,,,,,,,,,,,,,,,,07_DS,7,29,M,2022-11-25_17h19.18.478,dynamic target,2022.1.3,120.10122525372583,
1,2,3,2,L,0,106,106,106,,,,,,,None,696.8929724161462,None,695.9021640406718,None,696.393402491809,None,1,[0.008634225941932527],[0.5178091734087502],696.8929724161462,None,[3 0 3 2 0 2 3 1],space,0,1.3321240821824176,0.002312723056093091,None,696.9096247790294,None,1,698.2418154131956,None,None,698.7413873259487,None,,,,,,,,,,,,,,,,,,,,,,,,,,,,,,,,,,,,,,,,,,,,,,07_DS,7,29,M,2022-11-25_17h19.18.478,dynamic target,2022.1.3,120.10122525372583,
1,3,4,2,L,0,107,107,107,,,,,,,None,699.773834401949,None,698.78301832937,None,699.2742686468773,None,1,[0.00862332171163871],[0.5177036589448107],699.773834401949,None,[3 3 3 2 3 1 0 0],space,0,2.5311830471255234,0.0023759034484100994,None,699.7904893305313,None,1,702.3216488093858,None,None,702.8212204014293,None,,,,,,,,,,,,,,,,,,,,,,,,,,,,,,,,,,,,,,,,,,,,,,07_DS,7,29,M,2022-11-25_17h19.18.478,dynamic target,2022.1.3,120.10122525372583,
1,2,1,1,L,0,108,108,108,,,,,,,None,703.8536726088314,None,702.8628581398152,None,703.3540946666799,None,1,[0.0086137003308977],[0.5176141801166523],703.8536726088314,None,[2 0 0 3 2 3 1 0],space,0,2.946711825316015,0.0024926428523031063,None,703.8703227267251,None,1,706.8177928812074,None,None,707.3173638318243,None,,,,,,,,,,,,,,,,,,,,,,,,,,,,,,,,,,,,,,,,,,,,,,07_DS,7,29,M,2022-11-25_17h19.18.478,dynamic target,2022.1.3,120.10122525372583,
1,3,2,2,L,0,109,109,109,,,,,,,None,708.3498166806494,None,707.3589957973818,None,707.8502403420607,None,1,[0.008682332838361617],[0.5176311778886884],708.3498166806494,None,[2 2 1 3 2 1 0 2],space,0,1.778371038621117,0.0024018811709538568,None,708.3664764199239,None,1,710.1482693062608,None,None,710.647840577591,None,,,,,,,,,,,,,,,,,,,,,,,,,,,,,,,,,,,,,,,,,,,,,,07_DS,7,29,M,2022-11-25_17h19.18.478,dynamic target,2022.1.3,120.10122525372583,
1,4,1,2,L,0,110,110,110,,,,,,,None,711.6719462382971,None,710.6894754295645,None,711.1723901046062,None,1,[0.008627811686892528],[0.5171969329603598],711.6719462382971,None,[1 1 0 3 0 2 0 2],space,0,3.6566339691125904,0.002869480213121278,None,711.6886133539629,None,1,715.3438106948706,None,None,715.8433973604064,None,,,,,,,,,,,,,,,,,,,,,,,,,,,,,,,,,,,,,,,,,,,,,,07_DS,7,29,M,2022-11-25_17h19.18.478,dynamic target,2022.1.3,120.10122525372583,
1,5,2,2,L,0,111,111,111,,,,,,,None,716.8758303250506,None,715.8850126489087,None,716.3762629664125,None,1,[0.00861690745659871],[0.5176218772212451],716.8758303250506,None,[1 2 2 0 0 3 2 2],space,0,0.9644674397131894,0.0023791105777490884,None,716.8924656901618,None,1,717.8583219801076,None,None,718.3578919685882,None,,,,,,,,,,,,,,,,,,,,,,,,,,,,,,,,,,,,,,,,,,,,,,07_DS,7,29,M,2022-11-25_17h19.18.478,dynamic target,2022.1.3,120.10122525372583,
1,6,1,2,L,0,112,112,112,,,,,,,None,719.3903438552734,None,718.3995290655475,None,718.8907732895132,None,1,[0.008640960906632245],[0.5168832759882207],719.3903438552734,None,[2 0 2 3 1 3 3 0],space,0,2.4986133947568305,0.0032139255999936722,None,719.4070029531249,None,1,721.9048490469722,None,None,722.4044264118405,None,,,,,,,,,,,,,,,,,,,,,,,,,,,,,,,,,,,,,,,,,,,,,,07_DS,7,29,M,2022-11-25_17h19.18.478,dynamic target,2022.1.3,120.10122525372583,
1,7,4,2,L,0,113,113,113,,,,,,,None,723.4368741292674,None,722.4460564531255,None,722.9372968285388,None,1,[0.008630056676338427],[0.5175359262320853],723.4368741292674,None,[1 2 2 0 0 3 1 0],space,0,3.2347412898270704,0.002403164024144644,None,723.4535216814584,None,1,726.6924077053154,None,None,727.1919796180722,None,,,,,,,,,,,,,,,,,,,,,,,,,,,,,,,,,,,,,,,,,,,,,,07_DS,7,29,M,2022-11-25_17h19.18.478,dynamic target,2022.1.3,120.10122525372583,
1,8,4,2,L,0,114,114,114,,,,,,,None,728.2161000315609,None,727.2252903732333,728.2244266940688,727.7165368421884,None,1,[0.7918356822337955],[1.2998512534722977],728.2161000315609,None,[0 1 3 3 0 3 0 3],space,0,3.4973420898131735,0.0030070659413468093,None,729.0154166570464,None,1,732.5124205594766,None,None,733.0119889443944,None,,,,,,,,,,,,,,,,,,,,,,,,,,,,,,,,,,,,,,,,,,,,,,07_DS,7,29,M,2022-11-25_17h19.18.478,dynamic target,2022.1.3,120.10122525372583,
1,1,3,2,L,0,115,115,115,,,,,,,None,734.0444337754052,None,733.0620053007406,None,733.5448673789069,None,1,[0.009461023149924586],[0.5173248973078444],734.0444337754052,None,[0 0 1 2 0 0 1 2],space,0,3.5376787611239706,0.0020750749827129766,None,734.0611028153435,None,1,737.5997211082831,None,None,738.099295586739,None,,,,,,,,,,,,,,,,,,,,,,,,,,,,,,,,,,,,,,,,,,,,,,07_DS,7,29,M,2022-11-25_17h19.18.478,dynamic target,2022.1.3,120.10122525372583,
1,2,2,2,L,0,116,116,116,,,,,,,None,739.1317365691975,None,738.1409105545245,None,738.6321560613433,None,1,[0.00914544190527522],[0.5177713293160195],739.1317365691975,None,[0 2 0 2 0 3 0 3],space,0,1.7304421367625764,0.002416633957182057,None,739.148389894217,None,1,740.8802356339984,None,None,741.3798078674685,None,,,,,,,,,,,,,,,,,,,,,,,,,,,,,,,,,,,,,,,,,,,,,,07_DS,7,29,M,2022-11-25_17h19.18.478,dynamic target,2022.1.3,120.10122525372583,
1,3,3,2,L,0,117,117,117,,,,,,,None,742.4122587920174,None,741.4298274309403,None,741.9126824534287,None,1,[0.00870125488290796],[0.5176003894739551],742.4122587920174,None,[1 0 0 2 3 3 3 2],space,0,1.8584321407943207,0.002570896736870054,None,742.4289166070157,None,1,744.2856334203134,None,None,744.7852223308386,None,,,,,,,,,,,,,,,,,,,,,,,,,,,,,,,,,,,,,,,,,,,,,,07_DS,7,29,M,2022-11-25_17h19.18.478,dynamic target,2022.1.3,120.10122525372583,
1,4,3,2,L,0,118,118,118,,,,,,,None,745.8176675467024,None,744.8268558999589,None,745.3181020482007,None,1,[0.008663410790177295],[0.5087144041026477],745.8176675467024,None,[0 3 1 3 3 0 2 3],space,0,1.9176042659892119,0.0030548521244782023,None,745.8259912586582,None,1,747.741016197273,None,None,748.2406169741683,None,,,,,,,,,,,,,,,,,,,,,,,,,,,,,,,,,,,,,,,,,,,,,,07_DS,7,29,M,2022-11-25_17h19.18.478,dynamic target,2022.1.3,120.10122525372583,
1,5,3,2,L,0,119,119,119,,,,,,,None,749.2730348653131,None,748.2822178305978,None,748.7734675066786,None,1,[0.008661486514029093],[0.5178345097046986],749.2730348653131,None,[3 3 2 0 0 0 1 0],space,0,0.8048509992113395,0.0023791105741111096,None,749.2896881903362,None,1,750.0973350061722,None,space,750.6052277444687,None,0.7115627452476474,,,,,,,,,,,,,,,,,,,,,,,,,,,,,,,,,,,,,,,,,,,,,07_DS,7,29,M,2022-11-25_17h19.18.478,dynamic target,2022.1.3,120.10122525372583,
1,6,1,2,L,0,120,120,120,,,,,,,None,752.3620564223369,None,751.3712383613383,None,751.8541572056456,None,1,[0.008671749317727517],[0.5165314542136912],752.3620564223369,None,[0 3 3 1 0 2 2 0],space,0,1.3571685329588945,0.0031709501054137945,None,752.3703778893032,None,1,753.7275475488568,None,None,754.2271245930154,None,,,,,,,,,,,,,,,,,,,,,,,,,,,,,,,,,,,,,,,,,,,,,,07_DS,7,29,M,2022-11-25_17h19.18.478,dynamic target,2022.1.3,120.10122525372583,
1,7,2,2,L,0,121,121,121,,,,,,,None,755.2595674997501,None,754.2771184994781,None,754.7599869918959,None,1,[0.008666297206218587],[0.51734029151703],755.2595674997501,None,[2 1 1 1 0 1 3 3],space,0,1.0427867514881655,0.002761720763373887,None,755.2762192212067,None,1,756.3169914202954,None,None,756.8165633330522,None,,,,,,,,,,,,,,,,,,,,,,,,,,,,,,,,,,,,,,,,,,,,,,07_DS,7,29,M,2022-11-25_17h19.18.478,dynamic target,2022.1.3,120.10122525372583,
1,8,2,2,L,0,122,122,122,,,,,,,None,757.8490104090524,None,756.8582017128647,None,757.3494555582074,None,1,[0.008661165804369375],[0.5175477925986343],757.8490104090524,None,[0 3 0 0 0 0 3 3],space,0,3.332681801479339,0.002692767549888231,None,757.8656650169214,None,1,761.1961398384119,None,None,761.6957216932627,None,,,,,,,,,,,,,,,,,,,,,,,,,,,,,,,,,,,,,,,,,,,,,,07_DS,7,29,M,2022-11-25_17h19.18.478,dynamic target,2022.1.3,120.10122525372583,
1,1,2,2,L,0,123,123,123,,,,,,,None,762.7198340889336,None,761.7374036899928,None,762.2202612781839,None,1,[0.00911882275249809],[0.5174480509631394],762.7198340889336,None,[3 2 0 3 0 1 1 1],space,0,2.6379893392550002,0.002540429039072478,None,762.7364912625053,None,1,765.3758726591186,None,None,765.8754676631855,None,,,,,,,,,,,,,,,,,,,,,,,,,,,,,,,,,,,,,,,,,,,,,,07_DS,7,29,M,2022-11-25_17h19.18.478,dynamic target,2022.1.3,120.10122525372583,
1,2,1,2,L,0,124,124,124,,,,,,,None,766.9079246812762,None,765.9170957801907,None,766.4083377591705,None,1,[0.009441780392080545],[0.5179137257327966],766.9079246812762,None,[2 0 1 0 2 3 2 3],space,0,1.0248650079374784,0.002286424620251637,None,766.9245446521818,None,1,767.9486792411699,None,None,768.4482501917868,None,,,,,,,,,,,,,,,,,,,,,,,,,,,,,,,,,,,,,,,,,,,,,,07_DS,7,29,M,2022-11-25_17h19.18.478,dynamic target,2022.1.3,120.10122525372583,
1,3,2,2,L,0,125,125,125,,,,,,,None,769.4806844392806,None,768.4981998399016,None,768.9811350405507,None,1,[0.009193869511364028],[0.5178303404427425],769.4806844392806,None,[0 2 0 0 0 2 3 2],space,0,2.147944901309529,0.0022671818624075968,None,769.4973525170826,None,1,771.6455201574317,None,None,772.145101370856,None,,,,,,,,,,,,,,,,,,,,,,,,,,,,,,,,,,,,,,,,,,,,,,07_DS,7,29,M,2022-11-25_17h19.18.478,dynamic target,2022.1.3,120.10122525372583,
1,4,4,2,L,0,126,126,126,,,,,,,None,773.1775118856131,None,772.1867384678153,None,772.6779679389983,None,1,[0.009163081100268755],[0.5176725498204178],773.1775118856131,None,[2 3 3 3 0 0 0 1],space,0,1.6196288608043687,0.0025016228064487223,None,773.1941793219885,None,1,774.817787108379,None,None,775.317359341849,None,,,,,,,,,,,,,,,,,,,,,,,,,,,,,,,,,,,,,,,,,,,,,,07_DS,7,29,M,2022-11-25_17h19.18.478,dynamic target,2022.1.3,120.10122525372583,
1,5,2,2,L,0,127,127,127,,,,,,,None,776.3498044935695,None,775.3673384955255,776.3664433865233,775.8502323242428,None,2,"[0.00911240850109607, 0.3416317731280287]","[0.21678411163884448, 0.8504760658543091]",776.3498044935695,None,[1 3 3 3 3 0 0 2],space,0,0.9463224801584147,0.002823618306138087,None,776.6995047555283,None,1,777.6487048340387,None,None,778.148249806933,None,,,,,,,,,,,,,,,,,,,,,,,,,,,,,,,,,,,,,,,,,,,,,,07_DS,7,29,M,2022-11-25_17h19.18.478,dynamic target,2022.1.3,120.10122525372583,
1,6,4,2,L,0,128,128,128,,,,,,,None,779.1807084285865,None,778.1899138437548,None,778.6811413906617,None,1,[0.008662127940624487],[0.5176254050602438],779.1807084285865,None,[0 1 0 2 2 0 3 0],space,0,1.328400608326774,0.0025737831529113464,None,779.1973620743192,None,1,780.5295511049189,None,None,781.0291246212386,None,,,,,,,,,,,,,,,,,,,,,,,,,,,,,,,,,,,,,,,,,,,,,,07_DS,7,29,M,2022-11-25_17h19.18.478,dynamic target,2022.1.3,120.10122525372583,
1,7,4,2,L,0,129,129,129,,,,,,,None,782.053255297531,None,781.0624292828616,None,781.5536914667355,None,1,[0.00863935734378174],[0.5173345186885854],782.053255297531,None,[0 0 3 1 3 0 3 0],space,0,4.102894716193987,0.0026180414934060536,None,782.0698980390371,None,1,786.1747094984821,None,None,786.674269224159,None,,,,,,,,,,,,,,,,,,,,,,,,,,,,,,,,,,,,,,,,,,,,,,07_DS,7,29,M,2022-11-25_17h19.18.478,dynamic target,2022.1.3,120.10122525372583,
1,8,3,2,L,0,130,130,130,,,,,,,None,787.7067150173061,None,786.7242679413066,None,787.2071614493143,None,1,[0.008676880723214708],[0.5177950620527554],787.7067150173061,None,[0 1 0 2 3 3 3 0],space,0,1.2016501586876984,0.00235345356122707,None,787.7233802086957,None,1,788.9223541847896,None,None,789.4219232111303,None,,,,,,,,,,,,,,,,,,,,,,,,,,,,,,,,,,,,,,,,,,,,,,07_DS,7,29,M,2022-11-25_17h19.18.478,dynamic target,2022.1.3,120.10122525372583,
1,1,3,2,L,0,131,131,131,,,,,,,None,790.454369645704,None,789.4635622323658,None,789.9547977970906,None,1,[0.00963452869473258],[0.5175529240004835],790.454369645704,None,[1 3 2 0 1 0 2 2],space,0,0.9979437467445678,0.0019602598549681716,None,790.4710309885413,None,1,791.4701673093768,None,None,791.9697530127763,None,,,,,,,,,,,,,,,,,,,,,,,,,,,,,,,,,,,,,,,,,,,,,,07_DS,7,29,M,2022-11-25_17h19.18.478,dynamic target,2022.1.3,120.10122525372583,
1,2,1,2,L,0,132,132,132,,,,,,,None,793.0021863622736,None,792.0113792055054,None,792.4942865041558,None,1,[0.008656034402520163],[0.516454483178677],793.0021863622736,None,[2 3 0 2 0 0 1 3],space,0,5.674617930915701,0.0035686337905644905,None,793.0104956421565,None,1,798.6889725521287,None,None,799.1885470305882,None,,,,,,,,,,,,,,,,,,,,,,,,,,,,,,,,,,,,,,,,,,,,,,07_DS,7,29,M,2022-11-25_17h19.18.478,dynamic target,2022.1.3,120.10122525372583,
1,3,3,2,L,0,133,133,133,,,,,,,None,800.2209915408857,None,799.2385511998509,None,799.7214209751219,None,1,[0.008666617915878305],[0.517473066549428],800.2209915408857,None,[1 2 1 3 3 3 3 3],space,0,2.734720443506376,0.0027203488352824934,None,800.2376397345033,None,1,802.9769616068479,None,None,803.4765325574648,None,,,,,,,,,,,,,,,,,,,,,,,,,,,,,,,,,,,,,,,,,,,,,,07_DS,7,29,M,2022-11-25_17h19.18.478,dynamic target,2022.1.3,120.10122525372583,
1,4,3,2,L,0,134,134,134,,,,,,,None,804.5090068940408,None,803.5265495552376,None,804.0094132369668,None,1,[0.008617548883194104],[0.5176674184185686],804.5090068940408,None,[1 1 2 1 2 3 0 3],space,0,2.382260449201567,0.002519903428037651,None,804.5256345620473,None,1,806.9069067393284,None,None,807.406494367004,None,,,,,,,,,,,,,,,,,,,,,,,,,,,,,,,,,,,,,,,,,,,,,,07_DS,7,29,M,2022-11-25_17h19.18.478,dynamic target,2022.1.3,120.10122525372583,
1,1,4,0,L,0,135,135,135,,,,,,,None,808.4389254073722,None,807.4564991776933,None,807.9393673494014,None,1,[0.0085559720537276],[0.5175965409216587],808.4389254073722,None,[0 3 3 1 2 0 0 0],space,0,2.5162086528289365,0.0025340147876704577,None,808.4555947680237,None,1,810.9701009218588,None,None,811.46967989029,None,,,,,,,,,,,,,,,,,,,,,,,,,,,,,,,,,,,,,,,,,,,,,,07_DS,7,29,M,2022-11-25_17h19.18.478,dynamic target,2022.1.3,120.10122525372583,
1,2,3,2,L,0,136,136,136,,,,,,,None,812.502136587671,None,811.5113108937112,None,812.0025564005264,None,1,[0.008604399663454387],[0.5174509373791807],812.502136587671,None,[1 3 2 2 0 2 3 1],space,0,3.236939454323874,0.0026228521892335266,None,812.5187610485518,None,1,815.757660221625,None,None,816.2572414350492,None,,,,,,,,,,,,,,,,,,,,,,,,,,,,,,,,,,,,,,,,,,,,,,07_DS,7,29,M,2022-11-25_17h19.18.478,dynamic target,2022.1.3,120.10122525372583,
1,3,1,2,L,0,137,137,137,,,,,,,None,817.289679210382,None,816.3072494528642,None,816.7901083239049,None,1,[0.008684577824169537],[0.5172889774876239],817.289679210382,None,[2 2 0 3 0 2 0 2],space,0,5.313187924526574,0.002862424538761843,None,817.3063318939749,None,1,822.6184391813367,None,None,823.1180046798385,None,,,,,,,,,,,,,,,,,,,,,,,,,,,,,,,,,,,,,,,,,,,,,,07_DS,7,29,M,2022-11-25_17h19.18.478,dynamic target,2022.1.3,120.10122525372583,
1,4,1,2,L,0,138,138,138,,,,,,,None,824.1504649050585,None,823.1596411353748,None,823.6508994706965,None,1,[0.008559499892726308],[0.51684543189549],824.1504649050585,None,[2 1 0 1 3 1 2 1],space,0,1.86082561929652,0.0032376583403674886,None,824.1671182300779,None,1,826.0321748551032,None,None,826.5317429193077,None,,,,,,,,,,,,,,,,,,,,,,,,,,,,,,,,,,,,,,,,,,,,,,07_DS,7,29,M,2022-11-25_17h19.18.478,dynamic target,2022.1.3,120.10122525372583,
1,5,2,2,L,0,139,139,139,,,,,,,None,827.5641987186885,None,826.5733838648193,None,827.0563030298363,None,1,[0.008647375158034265],[0.5164833473172621],827.5641987186885,None,[0 1 2 3 2 3 3 2],space,0,0.9032158136978978,0.003486210640403442,None,827.5725166578159,None,1,828.4800651431542,None,None,828.9796482808546,None,,,,,,,,,,,,,,,,,,,,,,,,,,,,,,,,,,,,,,,,,,,,,,07_DS,7,29,M,2022-11-25_17h19.18.478,dynamic target,2022.1.3,120.10122525372583,
1,6,3,2,L,0,140,140,140,,,,,,,None,830.0120970245574,None,829.0296386594746,None,829.5125289603529,None,1,[0.008639678057079436],[0.5087233840567933],830.0120970245574,None,[1 2 0 0 3 2 1 1],space,0,2.5991709216250456,0.003048437873076182,None,830.0204207365132,None,1,832.6182063439555,None,None,833.1177657489155,None,,,,,,,,,,,,,,,,,,,,,,,,,,,,,,,,,,,,,,,,,,,,,,07_DS,7,29,M,2022-11-25_17h19.18.478,dynamic target,2022.1.3,120.10122525372583,
1,7,1,2,L,0,141,141,141,,,,,,,None,834.1502125042025,None,833.1677705596048,None,833.6506393727395,None,1,[0.008969049948063912],[0.517491347174655],834.1502125042025,None,[3 0 1 2 0 0 1 0],space,0,3.0756719851087837,0.002767172878520796,None,834.166865187799,None,1,837.2392288656774,None,None,837.7388004577209,None,,,,,,,,,,,,,,,,,,,,,,,,,,,,,,,,,,,,,,,,,,,,,,07_DS,7,29,M,2022-11-25_17h19.18.478,dynamic target,2022.1.3,120.10122525372583,
1,2,1,0,L,0,142,142,142,,,,,,,None,838.7712494579973,None,837.7888168140671,None,838.2717055113826,None,1,[0.008637753777293256],[0.5173928883887129],838.7712494579973,None,[0 2 2 2 3 2 2 0],space,0,2.1350907383275626,0.0024339524388778955,None,838.7879047072929,None,1,840.9277376673163,None,None,841.4272909787381,None,,,,,,,,,,,,,,,,,,,,,,,,,,,,,,,,,,,,,,,,,,,,,,07_DS,7,29,M,2022-11-25_17h19.18.478,dynamic target,2022.1.3,120.10122525372583,
1,1,2,1,L,0,143,143,143,,,,,,,None,842.4597351683224,None,841.4772932237283,None,841.9601799967677,None,1,[0.009152497579634655],[0.5174153382758959],842.4597351683224,None,[2 3 2 0 3 3 3 1],space,0,3.0049240575535805,0.002155573856725823,None,842.4763981147225,None,1,845.4821680559944,None,None,845.9817123874622,None,,,,,,,,,,,,,,,,,,,,,,,,,,,,,,,,,,,,,,,,,,,,,,07_DS,7,29,M,2022-11-25_17h19.18.478,dynamic target,2022.1.3,120.10122525372583,
1,8,4,1,L,0,144,144,144,,,,,,,None,847.014174857668,None,846.0317434965909,None,846.5146023676316,None,1,[0.008670787181472406],[0.5174236768034461],847.014174857668,None,[2 1 0 2 0 3 3 1],space,0,3.4913826073679957,0.002687315431103343,None,847.030828182691,None,1,850.5194996497848,None,None,851.0190770146531,None,,,,,,,,,,,,,,,,,,,,,,,,,,,,,,,,,,,,,,,,,,,,,,07_DS,7,29,M,2022-11-25_17h19.18.478,dynamic target,2022.1.3,120.10122525372583,
1,7,4,1,L,0,145,145,145,,,,,,,None,852.0515212042374,None,851.0607083387877,None,851.551945827785,None,1,[0.008643847319035558],[0.5174948750100157],852.0515212042374,None,[0 1 3 0 0 2 2 3],space,0,2.8056040325136564,0.0024608923013147432,None,852.0681732464072,None,1,854.8740971938932,None,None,855.3736614095454,None,,,,,,,,,,,,,,,,,,,,,,,,,,,,,,,,,,,,,,,,,,,,,,07_DS,7,29,M,2022-11-25_17h19.18.478,dynamic target,2022.1.3,120.10122525372583,
1,8,2,2,L,0,146,146,146,,,,,,,None,856.406115861937,None,855.4320121255041,None,855.9065440133236,None,1,[0.008565914147766307],[0.5172312492140918],856.406115861937,None,[3 1 1 3 2 1 1 0],space,0,1.410824400587444,0.0028627452520595398,None,856.4227675833936,None,0,857.8382219562445,None,None,858.337793548288,None,,,,,,,,,,,,,,,,,,,,,,,,,,,,,,,,,,,,,,,,,,,,,,07_DS,7,29,M,2022-11-25_17h19.18.478,dynamic target,2022.1.3,120.10122525372583,
1,1,2,2,L,0,147,147,147,,,,,,,None,859.3702396621484,None,858.3794284002615,None,858.8706719828006,None,1,[0.008714724815945374],[0.5174775565283198],859.3702396621484,None,[3 2 1 2 0 1 0 0],space,0,2.5107610277664207,0.0026796183265105356,None,859.3868997221361,None,1,861.9014023481323,None,None,862.4009736194624,None,,,,,,,,,,,,,,,,,,,,,,,,,,,,,,,,,,,,,,,,,,,,,,07_DS,7,29,M,2022-11-25_17h19.18.478,dynamic target,2022.1.3,120.10122525372583,
1,2,2,2,L,0,148,148,148,,,,,,,None,863.4251107741496,None,862.4426636340104,None,862.9255064694153,None,1,[0.0086201145859377],[0.5095245242555393],863.4251107741496,None,[3 3 3 2 0 1 0 0],space,0,2.3349421842285665,0.002106504820403643,None,863.43341812976,None,1,865.7730778408113,None,None,866.2726513571273,None,,,,,,,,,,,,,,,,,,,,,,,,,,,,,,,,,,,,,,,,,,,,,,07_DS,7,29,M,2022-11-25_17h19.18.478,dynamic target,2022.1.3,120.10122525372583,
1,6,1,0,L,0,149,149,149,,,,,,,None,867.3051119030606,None,866.3226564885299,None,866.8055339609054,None,1,[0.009690974118711893],[0.5175792224363249],867.3051119030606,None,[3 0 0 3 2 2 3 0],space,0,3.039175527057523,0.00279860272348742,None,867.321751758147,None,1,870.3608174452311,None,None,870.8603893579842,None,,,,,,,,,,,,,,,,,,,,,,,,,,,,,,,,,,,,,,,,,,,,,,07_DS,7,29,M,2022-11-25_17h19.18.478,dynamic target,2022.1.3,120.10122525372583,
1,4,2,0,L,0,150,150,150,,,,,,,None,871.8928264918941,None,870.9103906408382,None,871.3932588125426,None,1,[0.00964960218698252],[0.5176610041635286],871.8928264918941,None,[0 1 1 1 1 2 2 0],space,0,4.707731832651916,0.0025747452928044368,None,871.9095215095585,None,1,876.6221033233523,None,None,877.1216755568224,None,,,,,,,,,,,,,,,,,,,,,,,,,,,,,,,,,,,,,,,,,,,,,,07_DS,7,29,M,2022-11-25_17h19.18.478,dynamic target,2022.1.3,120.10122525372583,
1,5,4,2,L,0,151,151,151,,,,,,,None,None,None,877.1716829332145,None,877.6462241216977,None,1,[0.008649299434182467],[0.5089055488424492],None,None,[3 3 3 1 2 2 2 1],space,0,1.1825905266596237,0.002796999156998936,None,878.1541181428438,None,1,879.3364397560545,None,None,879.8360126309475,None,,,,,,,,,,,,,,,,,,,,,,,,,,,,,,,,,,,,,,,,,,,,,,07_DS,7,29,M,2022-11-25_17h19.18.478,dynamic target,2022.1.3,120.10122525372583,
1,8,3,0,L,0,152,152,152,,,,,,,None,880.868460669084,None,879.8776660842523,None,880.3688827269325,None,1,[0.009295856136304792],[0.5178290575931896],880.868460669084,None,[3 2 1 2 3 2 0 1],space,0,2.3863482526285225,0.0023133644826884847,None,880.8851239361975,None,1,883.2747285488149,None,None,883.7742873123519,None,,,,,,,,,,,,,,,,,,,,,,,,,,,,,,,,,,,,,,,,,,,,,,07_DS,7,29,M,2022-11-25_17h19.18.478,dynamic target,2022.1.3,120.10122525372583,
1,1,4,2,L,0,153,153,153,,,,,,,None,884.8067327847893,None,883.8159625741173,None,884.3071760096682,None,1,[0.008628453113487922],[0.5175282291274925],884.8067327847893,None,[2 0 3 3 3 0 1 0],space,0,2.8002895032041124,0.0025946294772438705,None,884.8234005418781,None,1,887.6210013546915,None,None,888.1205761538607,None,,,,,,,,,,,,,,,,,,,,,,,,,,,,,,,,,,,,,,,,,,,,,,07_DS,7,29,M,2022-11-25_17h19.18.478,dynamic target,2022.1.3,120.10122525372583,
1,2,2,2,L,0,154,154,154,,,,,,,None,889.1530206641582,None,888.1622058744324,None,888.6534347041888,None,1,[0.008579063363868045],[0.5178011555908597],889.1530206641582,None,[2 1 1 1 3 0 3 0],space,0,4.869681457676052,0.0022838589138700627,None,889.1696704613387,None,0,894.0488262558465,None,None,894.548390792212,None,,,,,,,,,,,,,,,,,,,,,,,,,,,,,,,,,,,,,,,,,,,,,,07_DS,7,29,M,2022-11-25_17h19.18.478,dynamic target,2022.1.3,120.10122525372583,
1,3,3,2,L,0,155,155,155,,,,,,,None,895.5808353025095,None,894.5900192299305,None,895.0812631331828,None,1,[0.008650261574075557],[0.517731240233843],895.5808353025095,None,[3 2 1 3 1 3 0 0],space,0,5.0975173272054235,0.0023313243873417377,None,895.5974947210707,None,1,900.7014392942292,None,None,901.2010144141117,None,,,,,,,,,,,,,,,,,,,,,,,,,,,,,,,,,,,,,,,,,,,,,,07_DS,7,29,M,2022-11-25_17h19.18.478,dynamic target,2022.1.3,120.10122525372583,
1,4,2,2,L,0,156,156,156,,,,,,,None,902.2251332240339,None,901.2426457382426,None,901.7255613754241,None,1,[0.008629415249743033],[0.5174919885976124],902.2251332240339,None,[1 3 0 1 3 3 2 3],space,0,2.6610495408676798,0.0028066205341019668,None,902.2417839833543,None,1,904.9061710245114,None,None,905.4057394094292,None,,,,,,,,,,,,,,,,,,,,,,,,,,,,,,,,,,,,,,,,,,,,,,07_DS,7,29,M,2022-11-25_17h19.18.478,dynamic target,2022.1.3,120.10122525372583,
1,5,1,2,L,0,157,157,157,,,,,,,None,906.4381893718419,None,905.4473784306647,None,905.9386133539629,None,1,[0.008654430836031679],[0.517640157842834],906.4381893718419,None,[1 1 3 3 2 0 1 3],space,0,2.704000340978382,0.002540749752370175,None,906.4548526389517,None,1,909.1608486184996,None,None,909.6604503575312,None,,,,,,,,,,,,,,,,,,,,,,,,,,,,,,,,,,,,,,,,,,,,,,07_DS,7,29,M,2022-11-25_17h19.18.478,dynamic target,2022.1.3,120.10122525372583,
1,4,2,1,L,0,158,158,158,,,,,,,None,910.6845431897309,None,909.7020537796634,None,910.1849767932326,None,1,[0.008635188078187639],[0.5169926390044566],910.6845431897309,None,[3 0 2 2 1 2 3 1],space,0,3.33819004122779,0.003142085966828745,None,910.7011958733274,None,1,914.03999511234,None,None,914.5395689493729,None,,,,,,,,,,,,,,,,,,,,,,,,,,,,,,,,,,,,,,,,,,,,,,07_DS,7,29,M,2022-11-25_17h19.18.478,dynamic target,2022.1.3,120.10122525372583,
1,5,4,2,L,0,159,159,159,,,,,,,None,915.5720208360617,None,914.5895615729823,None,915.07244225248,None,1,[0.008733005437534302],[0.5172087993305468],915.5720208360617,None,[3 2 3 2 3 0 1 1],space,0,1.154160312449676,0.002844785343768308,None,915.5886677468297,None,1,916.7460074482333,None,None,917.2455783988502,None,,,,,,,,,,,,,,,,,,,,,,,,,,,,,,,,,,,,,,,,,,,,,,07_DS,7,29,M,2022-11-25_17h19.18.478,dynamic target,2022.1.3,120.10122525372583,
1,6,4,2,L,0,160,160,160,,,,,,,None,918.278009759928,None,917.2872158165228,None,917.7784558712228,None,1,[0.008626208124042023],[0.5174932714471652],918.278009759928,None,[3 3 0 0 3 0 1 1],space,0,1.5521605407993775,0.0026318321433791425,None,918.2946791205832,None,1,919.843347906517,None,None,920.3429214228366,None,,,,,,,,,,,,,,,,,,,,,,,,,,,,,,,,,,,,,,,,,,,,,,07_DS,7,29,M,2022-11-25_17h19.18.478,dynamic target,2022.1.3,120.10122525372583,
1,6,4,0,L,0,161,161,161,,,,,,,None,921.3753720266759,None,920.384554991957,None,920.8757953673703,None,1,[0.008619152446044609],[0.5176821711975208],921.3753720266759,None,[0 0 1 0 2 3 1 1],space,0,0.7738493109791307,0.0024657029935042374,None,921.3920205410068,None,1,922.1663542925489,None,None,922.6659332609801,None,,,,,,,,,,,,,,,,,,,,,,,,,,,,,,,,,,,,,,,,,,,,,,07_DS,7,29,M,2022-11-25_17h19.18.478,dynamic target,2022.1.3,120.10122525372583,
1,7,3,2,L,0,162,162,162,,,,,,,None,923.6983755262918,None,922.7159547487281,923.7150246820456,923.1988030362518,None,1,[0.11646743996607256],[0.6245269488426857],923.6983755262918,None,[0 0 2 3 0 1 1 3],space,0,0.8078243261807074,0.0034660057426663116,None,923.8232629561498,None,0,924.6392383587736,None,None,925.1388054608382,None,,,,,,,,,,,,,,,,,,,,,,,,,,,,,,,,,,,,,,,,,,,,,,07_DS,7,29,M,2022-11-25_17h19.18.478,dynamic target,2022.1.3,120.10122525372583,
1,8,3,2,L,0,163,163,163,,,,,,,None,926.171253819688,None,925.1804480099163,None,925.6716726704071,None,1,[0.008968408521468518],[0.517356327145535],926.171253819688,None,[3 2 2 3 3 0 3 3],space,0,1.7700219262223982,0.0025259969697799534,None,926.1879068239978,None,1,927.9613842727667,None,None,928.4609561855235,None,,,,,,,,,,,,,,,,,,,,,,,,,,,,,,,,,,,,,,,,,,,,,,07_DS,7,29,M,2022-11-25_17h19.18.478,dynamic target,2022.1.3,120.10122525372583,
1,7,4,1,L,0,164,164,164,,,,,,,None,929.49340422366,None,928.5025766054241,None,928.9938301300572,None,1,[0.008638715920824325],[0.5176988482598972],929.49340422366,None,[2 1 3 1 0 3 1 1],space,0,3.5196694630212733,0.0024301038865814917,None,929.51005530369,None,1,933.0320587571259,None,None,933.5315902600872,None,,,,,,,,,,,,,,,,,,,,,,,,,,,,,,,,,,,,,,,,,,,,,,07_DS,7,29,M,2022-11-25_17h19.18.478,dynamic target,2022.1.3,120.10122525372583,
1,8,1,2,L,0,165,165,165,,,,,,,None,934.5640514474399,None,933.5732289606094,None,934.0644773538406,None,1,[0.0078122394224919844],[0.5165131735921022],934.5640514474399,None,[0 3 1 3 2 2 1 0],space,0,2.080609035627276,0.002689239707251545,None,934.5807118281409,None,1,936.6622498120632,None,None,937.1618380811655,None,,,,,,,,,,,,,,,,,,,,,,,,,,,,,,,,,,,,,,,,,,,,,,07_DS,7,29,M,2022-11-25_17h19.18.478,dynamic target,2022.1.3,120.10122525372583,
1,1,4,2,L,0,166,166,166,,,,,,,None,938.1942691215299,None,937.2034504832518,None,937.6946908586651,None,1,[0.009242938547686208],[0.5176751155195234],938.1942691215299,None,[0 0 0 1 0 2 2 1],space,0,1.3303835746373807,0.0024746829440118745,None,938.2109381614719,None,1,939.5431169292679,None,None,940.0426821070563,None,,,,,,,,,,,,,,,,,,,,,,,,,,,,,,,,,,,,,,,,,,,,,,07_DS,7,29,M,2022-11-25_17h19.18.478,dynamic target,2022.1.3,120.10122525372583,
1,2,1,2,L,0,167,167,167,,,,,,,None,941.0751445772621,None,940.0842999612578,None,940.5755579758697,None,1,[0.008673352884216001],[0.5175686389229668],941.0751445772621,None,[2 0 2 0 3 1 0 0],space,0,2.817513376023271,0.002614834371343022,None,941.0917837909292,None,1,943.9143597805814,None,None,944.4139323347648,None,,,,,,,,,,,,,,,,,,,,,,,,,,,,,,,,,,,,,,,,,,,,,,07_DS,7,29,M,2022-11-25_17h19.18.478,dynamic target,2022.1.3,120.10122525372583,
1,3,1,2,L,0,168,168,168,,,,,,,None,945.4463790900481,None,944.4639474082578,945.4630465264272,944.9467953750682,None,1,[0.08305495475360658],[0.5835863756146864],945.4463790900481,None,[0 3 3 0 2 2 0 3],space,0,2.5397704490242177,0.002809827663440956,None,945.5296261516814,None,1,948.0691289701026,None,None,948.5687015242823,None,,,,,,,,,,,,,,,,,,,,,,,,,,,,,,,,,,,,,,,,,,,,,,07_DS,7,29,M,2022-11-25_17h19.18.478,dynamic target,2022.1.3,120.10122525372583,
1,4,1,2,L,0,169,169,169,,,,,,,None,949.6011550145377,None,948.6103485633357,None,949.1015745066798,None,1,[0.009145762614934938],[0.517737654485245],949.6011550145377,None,[1 2 2 2 2 2 0 2],space,0,4.610146991330112,0.00244517738246941,None,949.6177996803162,None,1,954.2305125372986,None,None,954.7300802807898,None,,,,,,,,,,,,,,,,,,,,,,,,,,,,,,,,,,,,,,,,,,,,,,07_DS,7,29,M,2022-11-25_17h19.18.478,dynamic target,2022.1.3,120.10122525372583,
1,5,4,2,L,0,170,170,170,,,,,,,None,955.7625247910873,None,954.7800876571819,None,955.2629548667501,None,1,[0.00922562006599037],[0.5176847369002644],955.7625247910873,None,[1 0 2 3 1 1 0 3],space,0,0.8325602513832564,0.002418878942989977,None,955.7791861339247,None,1,956.6117962602366,None,None,957.1113739458182,None,,,,,,,,,,,,,,,,,,,,,,,,,,,,,,,,,,,,,,,,,,,,,,07_DS,7,29,M,2022-11-25_17h19.18.478,dynamic target,2022.1.3,120.10122525372583,
1,6,2,2,L,0,171,171,171,,,,,,,None,958.1438155697033,None,957.153016815606,None,957.6442417968137,None,1,[0.008668862905324204],[0.51777293287887],958.1438155697033,None,[1 1 0 3 1 0 1 2],space,0,1.091850976117712,0.002263012596813496,None,958.1604708189989,None,1,959.251207803838,None,None,959.7507563045714,None,,,,,,,,,,,,,,,,,,,,,,,,,,,,,,,,,,,,,,,,,,,,,,07_DS,7,29,M,2022-11-25_17h19.18.478,dynamic target,2022.1.3,120.10122525372583,
1,5,3,1,L,0,172,172,172,,,,,,,None,960.783221725333,None,959.7924004572087,None,960.2836453226009,None,1,[0.00862749097723281],[0.5089312058553332],960.783221725333,None,[3 3 1 3 3 2 1 1],space,0,2.748670802317065,0.0028739701956510544,None,960.7915457579984,None,1,963.5391856336137,None,None,964.0387604327829,None,,,,,,,,,,,,,,,,,,,,,,,,,,,,,,,,,,,,,,,,,,,,,,07_DS,7,29,M,2022-11-25_17h19.18.478,dynamic target,2022.1.3,120.10122525372583,
1,6,4,2,L,0,173,173,173,,,,,,,None,965.0712065466432,None,964.0887610742102,None,964.5716597136161,None,1,[0.008618190309789497],[0.5175230977256433],965.0712065466432,None,[1 1 0 1 2 2 0 0],space,0,1.1396663456944225,0.0024583265985711478,None,965.087856664537,None,1,966.2285449651972,None,None,966.7281184815168,None,,,,,,,,,,,,,,,,,,,,,,,,,,,,,,,,,,,,,,,,,,,,,,07_DS,7,29,M,2022-11-25_17h19.18.478,dynamic target,2022.1.3,120.10122525372583,
1,7,2,2,L,0,174,174,174,,,,,,,None,967.760563633241,None,966.7781146329653,None,967.2609927467638,None,1,[0.008605041090049781],[0.5172443984338315],967.760563633241,None,[0 2 3 2 2 2 0 1],space,0,2.178832095123653,0.002703030353586655,None,967.7772063747434,None,1,969.9586755337295,None,None,970.4582509743253,None,,,,,,,,,,,,,,,,,,,,,,,,,,,,,,,,,,,,,,,,,,,,,,07_DS,7,29,M,2022-11-25_17h19.18.478,dynamic target,2022.1.3,120.10122525372583,
1,8,2,2,L,0,175,175,175,,,,,,,None,971.4907166516568,None,970.5165872582147,None,970.9911284467016,None,1,[0.008721139067347394],[0.5172508126852335],971.4907166516568,None,[3 1 2 0 2 3 3 1],space,0,3.392065917738364,0.0029284913434821647,None,971.5073475267927,None,1,974.904441421193,None,None,975.4040069196984,None,,,,,,,,,,,,,,,,,,,,,,,,,,,,,,,,,,,,,,,,,,,,,,07_DS,7,29,M,2022-11-25_17h19.18.478,dynamic target,2022.1.3,120.10122525372583,
1,7,1,1,L,0,176,176,176,,,,,,,None,976.4364520714189,None,975.4540194274923,None,975.9368805435188,None,1,[0.008672390744322911],[0.517144336085039],976.4364520714189,None,[2 3 1 3 2 2 2 2],space,0,2.686045564030792,0.003044910034077475,None,976.4531127728333,None,1,979.1424621623228,None,None,979.6420347165025,None,,,,,,,,,,,,,,,,,,,,,,,,,,,,,,,,,,,,,,,,,,,,,,07_DS,7,29,M,2022-11-25_17h19.18.478,dynamic target,2022.1.3,120.10122525372583,
1,8,4,2,L,0,177,177,177,,,,,,,None,980.6745026388235,None,979.6836657199237,None,980.1749230931091,None,1,[0.008654751552967355],[0.5176876233163057],980.6745026388235,None,[1 3 0 2 1 1 2 1],space,0,2.4792939854851284,0.002470192968758056,None,980.6911351175222,None,1,983.1723375077308,None,None,983.6719090997743,None,,,,,,,,,,,,,,,,,,,,,,,,,,,,,,,,,,,,,,,,,,,,,,07_DS,7,29,M,2022-11-25_17h19.18.478,dynamic target,2022.1.3,120.10122525372583,
1,7,3,1,L,0,178,178,178,,,,,,,None,984.7043548929214,None,983.7135471588736,None,984.2047907414126,None,1,[0.009447232507227454],[0.5177857613853121],984.7043548929214,None,[3 3 1 1 3 1 1 3],space,0,1.4747443558408122,0.00244742236827733,None,984.7210300264014,None,1,986.1947440969634,None,None,986.6943137647307,None,,,,,,,,,,,,,,,,,,,,,,,,,,,,,,,,,,,,,,,,,,,,,,07_DS,7,29,M,2022-11-25_17h19.18.478,dynamic target,2022.1.3,120.10122525372583,
1,8,1,2,L,0,179,179,179,,,,,,,None,987.7267339008686,None,986.7359457302882,987.7350897482283,987.2271828985758,None,1,[0.20946416613151086],[0.717063131640316],987.7267339008686,None,[0 2 0 1 1 0 3 0],space,0,1.7714609638824186,0.002676731914107222,None,987.9432466896069,None,1,989.7167212519598,None,space,990.2246239323504,None,1.3350169102777727,,,,,,,,,,,,,,,,,,,,,,,,,,,,,,,,,,,,,,,,,,,,,07_DS,7,29,M,2022-11-25_17h19.18.478,dynamic target,2022.1.3,120.10122525372583,
1,1,4,2,L,0,180,180,180,,,,,,,None,992.6059124659732,None,991.6234795013333,None,992.1063383723704,None,1,[0.008749682496272726],[0.5172251556759875],992.6059124659732,None,[3 2 1 1 2 2 2 2],space,0,2.4036147802326013,0.0027325359151291195,None,992.622565470283,None,1,995.0288333500102,None,None,995.5284001313652,None,,,,,,,,,,,,,,,,,,,,,,,,,,,,,,,,,,,,,,,,,,,,,,07_DS,7,29,M,2022-11-25_17h19.18.478,dynamic target,2022.1.3,120.10122525372583,
1,2,1,2,L,0,181,181,181,,,,,,,None,996.5608327752961,None,995.5784084698935,None,996.0612750380387,None,1,[0.008647375161672244],[0.5174374674497813],996.5608327752961,None,[2 0 1 1 2 3 2 2],space,0,2.6245046552066924,0.0026863532948482316,None,996.5775140023143,None,1,999.2002504124393,None,None,999.6998111002489,None,,,,,,,,,,,,,,,,,,,,,,,,,,,,,,,,,,,,,,,,,,,,,,07_DS,7,29,M,2022-11-25_17h19.18.478,dynamic target,2022.1.3,120.10122525372583,
1,3,3,2,L,0,182,182,182,,,,,,,None,1000.7322733138848,None,999.7498274565951,None,1000.2243702486448,None,1,[0.008626208124042023],[0.5166340822615894],1000.7322733138848,None,[2 1 1 0 0 3 3 0],space,0,5.294066394955735,0.003263636059273267,None,1000.7405995915433,None,1,1006.0360776073321,None,None,1006.5356084688668,None,,,,,,,,,,,,,,,,,,,,,,,,,,,,,,,,,,,,,,,,,,,,,,07_DS,7,29,M,2022-11-25_17h19.18.478,dynamic target,2022.1.3,120.10122525372583,
1,4,2,2,L,0,183,183,183,,,,,,,None,1007.5680680526602,None,1006.585645992247,None,1007.0684936383441,None,1,[0.00894467578473268],[0.5176029551730608],1007.5680680526602,None,[3 1 0 0 3 3 1 3],space,0,3.7770891501604638,0.002583404533652356,None,1007.5847290747843,None,1,1011.3648116005643,None,None,1011.864377099066,None,,,,,,,,,,,,,,,,,,,,,,,,,,,,,,,,,,,,,,,,,,,,,,07_DS,7,29,M,2022-11-25_17h19.18.478,dynamic target,2022.1.3,120.10122525372583,
1,5,3,2,L,0,184,184,184,,,,,,,None,1012.8968225714998,None,1011.9060356837726,None,1012.3972564957148,None,1,[0.00864031948367483],[0.5176687012681214],1012.8968225714998,None,[0 3 3 2 2 1 2 1],space,0,1.072051460010698,0.0024936049921961967,None,1012.9134864800399,None,1,1013.9875601977656,None,None,1014.4871327519453,None,,,,,,,,,,,,,,,,,,,,,,,,,,,,,,,,,,,,,,,,,,,,,,07_DS,7,29,M,2022-11-25_17h19.18.478,dynamic target,2022.1.3,120.10122525372583,
1,6,3,2,L,0,185,185,185,,,,,,,None,1015.5195775829561,None,1014.5371475047286,None,1015.0199932265496,None,1,[0.009298742552346084],[0.517377814896463],1015.5195775829561,None,[2 1 2 2 0 3 1 0],space,0,1.2331752499594586,0.0026687140962167177,None,1015.536233152965,None,1,1016.7684945363399,None,None,1017.268079919026,None,,,,,,,,,,,,,,,,,,,,,,,,,,,,,,,,,,,,,,,,,,,,,,07_DS,7,29,M,2022-11-25_17h19.18.478,dynamic target,2022.1.3,120.10122525372583,
1,7,1,2,L,0,186,186,186,,,,,,,None,1018.3005234671873,None,1017.3097179781253,None,1017.8009532221367,None,1,[0.00938373140161275],[0.5175320776797889],1018.3005234671873,None,[0 2 2 0 3 2 2 3],space,0,2.755519941652892,0.0026529991773713846,None,1018.3171867343008,None,1,1021.073146216746,None,None,1021.5727165259399,None,,,,,,,,,,,,,,,,,,,,,,,,,,,,,,,,,,,,,,,,,,,,,,07_DS,7,29,M,2022-11-25_17h19.18.478,dynamic target,2022.1.3,120.10122525372583,
1,8,2,2,L,0,187,187,187,,,,,,,None,1022.6051626398003,None,1021.6227348065586,None,1022.1055779626804,None,1,[0.008659882951178588],[0.5173072581092129],1022.6051626398003,None,[1 1 2 0 0 2 1 1],space,0,1.1398680739512201,0.0028418989277270157,None,1022.6218024948903,None,1,1023.7625013790639,None,None,1024.2620694432685,None,,,,,,,,,,,,,,,,,,,,,,,,,,,,,,,,,,,,,,,,,,,,,,07_DS,7,29,M,2022-11-25_17h19.18.478,dynamic target,2022.1.3,120.10122525372583,
1,1,1,2,L,0,188,188,188,,,,,,,None,1025.294527423499,None,1024.3037174444617,1025.3028361260986,1024.7949520470465,None,1,[0.024812896241201088],[0.52485266461008],1025.294527423499,None,[3 0 0 1 2 2 0 0],space,0,1.6896821247610205,0.0030599835263274144,None,1025.3194859232826,None,0,1027.0180436143564,None,None,1027.517622903501,None,,,,,,,,,,,,,,,,,,,,,,,,,,,,,,,,,,,,,,,,,,,,,,07_DS,7,29,M,2022-11-25_17h19.18.478,dynamic target,2022.1.3,120.10122525372583,
1,2,3,2,L,0,189,189,189,,,,,,,None,1028.5500629879666,None,1027.5592622454533,None,1028.0421647334115,None,1,[0.008585156905610347],[0.5164086212716938],1028.5500629879666,None,[2 0 0 3 1 1 3 1],space,0,2.9469234956632135,0.00331655365152983,None,1028.5584097912288,None,1,1031.5141867240382,None,None,1032.0137589575047,None,,,,,,,,,,,,,,,,,,,,,,,,,,,,,,,,,,,,,,,,,,,,,,07_DS,7,29,M,2022-11-25_17h19.18.478,dynamic target,2022.1.3,120.10122525372583,
1,1,2,1,L,0,190,190,190,,,,,,,None,1033.0462150776025,None,1032.063735545482,None,1032.5383132952084,None,1,[0.008673032170918304],[0.5165314542136912],1033.0462150776025,None,[1 0 1 3 2 0 2 0],space,0,2.3377599655650556,0.0025186205784848426,None,1033.054530451027,None,1,1035.3941738057329,None,None,1035.893760791982,None,,,,,,,,,,,,,,,,,,,,,,,,,,,,,,,,,,,,,,,,,,,,,,07_DS,7,29,M,2022-11-25_17h19.18.478,dynamic target,2022.1.3,120.10122525372583,
1,2,3,2,L,0,191,191,191,,,,,,,None,1036.9262097922547,None,1035.935395964665,None,1036.4266417921935,None,1,[0.008727232609089697],[0.5175221355857502],1036.9262097922547,None,[3 1 3 2 3 1 1 0],space,0,2.304994037051074,0.002214264273789013,None,1036.942859910152,None,1,1039.249212971161,None,None,1039.7487848839178,None,,,,,,,,,,,,,,,,,,,,,,,,,,,,,,,,,,,,,,,,,,,,,,07_DS,7,29,M,2022-11-25_17h19.18.478,dynamic target,2022.1.3,120.10122525372583,
1,7,1,0,L,0,192,192,192,,,,,,,None,1040.781231639201,None,1039.8070692123583,None,1040.2816604320142,None,1,[0.008564631298213499],[0.5172302870778367],1040.781231639201,None,[3 3 3 1 1 2 1 1],space,0,1.3149200935440604,0.0029605626077682246,None,1040.7978981134402,None,1,1042.113445043964,None,None,1042.613001883225,None,,,,,,,,,,,,,,,,,,,,,,,,,,,,,,,,,,,,,,,,,,,,,,07_DS,7,29,M,2022-11-25_17h19.18.478,dynamic target,2022.1.3,120.10122525372583,
1,8,4,2,L,0,193,193,193,,,,,,,None,1043.6454521663509,None,1042.6546367351984,None,1043.1458700549338,None,1,[0.008570404123020126],[0.5177392580480955],1043.6454521663509,None,[3 2 2 2 3 1 2 0],space,0,2.1139195342220773,0.0023710927562206052,None,1043.6620926628639,None,1,1045.7769594260026,None,None,1046.2765165859769,None,,,,,,,,,,,,,,,,,,,,,,,,,,,,,,,,,,,,,,,,,,,,,,07_DS,7,29,M,2022-11-25_17h19.18.478,dynamic target,2022.1.3,120.10122525372583,
1,1,2,2,L,0,194,194,194,,,,,,,None,1047.3089867532872,None,1046.318148230821,None,1046.8093979069017,None,1,[0.008640640193334548],[0.5177549729705788],1047.3089867532872,None,[3 2 2 0 2 3 0 3],space,0,1.1379726621962618,0.002413747541140765,None,1047.3256150627203,None,1,1048.4662950248494,None,None,1048.9658874632137,None,,,,,,,,,,,,,,,,,,,,,,,,,,,,,,,,,,,,,,,,,,,,,,07_DS,7,29,M,2022-11-25_17h19.18.478,dynamic target,2022.1.3,120.10122525372583,
1,4,2,0,L,0,195,195,195,,,,,,,None,1049.9983233142702,None,1049.0158784832602,None,1049.4987505035206,None,1,[0.008182021105312742],[0.5168168884702027],1049.9983233142702,None,[1 3 3 2 0 1 0 1],space,0,1.3928773207371705,0.0028172040547360666,None,1050.0149737528773,None,1,1051.4054478174876,None,None,1051.9050203716674,None,,,,,,,,,,,,,,,,,,,,,,,,,,,,,,,,,,,,,,,,,,,,,,07_DS,7,29,M,2022-11-25_17h19.18.478,dynamic target,2022.1.3,120.10122525372583,
1,5,2,2,L,0,196,196,196,,,,,,,None,1052.9291427094322,None,1051.9549985632075,None,1052.4295689365426,None,1,[0.008558858469768893],[0.516889369529963],1052.9291427094322,None,[1 1 3 2 1 1 2 3],space,0,0.7980207819236966,0.0030064245147514157,None,1052.9457909030498,None,1,1053.7451052835495,None,None,1054.2446791205825,None,,,,,,,,,,,,,,,,,,,,,,,,,,,,,,,,,,,,,,,,,,,,,,07_DS,7,29,M,2022-11-25_17h19.18.478,dynamic target,2022.1.3,120.10122525372583,
1,6,1,2,L,0,197,197,197,,,,,,,None,1055.2771422322112,None,1054.3030375336457,None,1054.7775755150033,None,1,[0.00934941514788079],[0.5176581177511252],1055.2771422322112,None,[0 3 1 1 0 2 3 0],space,0,1.9532655883012922,0.002447101654979633,None,1055.2937772766127,None,1,1057.2504307170893,None,None,1057.7500039126958,None,,,,,,,,,,,,,,,,,,,,,,,,,,,,,,,,,,,,,,,,,,,,,,07_DS,7,29,M,2022-11-25_17h19.18.478,dynamic target,2022.1.3,120.10122525372583,
1,7,4,2,L,0,198,198,198,,,,,,,None,1058.7824554786712,None,1057.8000196276153,None,1058.2828813850683,None,1,[0.008647695871331962],[0.5174810843673185],1058.7824554786712,None,[1 3 0 0 0 0 2 2],space,0,2.6875464992263005,0.0027206695449422114,None,1058.7991274050255,None,1,1061.488462683159,None,None,1061.9880349166292,None,,,,,,,,,,,,,,,,,,,,,,,,,,,,,,,,,,,,,,,,,,,,,,07_DS,7,29,M,2022-11-25_17h19.18.478,dynamic target,2022.1.3,120.10122525372583,
1,3,4,0,L,0,199,199,199,,,,,,,None,1063.020485841178,None,1062.0296825971054,None,1062.5209245760816,None,1,[0.009134858388279099],[0.5178050041431561],1063.020485841178,None,[1 0 1 2 1 3 0 0],space,0,2.352952444467519,0.0024041261603997555,None,1063.0371250548415,None,1,1065.3934570129604,None,None,1065.8930177007737,None,,,,,,,,,,,,,,,,,,,,,,,,,,,,,,,,,,,,,,,,,,,,,,07_DS,7,29,M,2022-11-25_17h19.18.478,dynamic target,2022.1.3,120.10122525372583,
1,4,1,2,L,0,200,200,200,,,,,,,None,1066.9254609282216,None,1065.9346560805861,None,1066.4258916453073,None,1,[0.009105352823098656],[0.5174967992861639],1066.9254609282216,None,[3 0 2 3 2 1 1 1],space,0,1.536291358203016,0.002440045980620198,None,1066.9421145739543,None,1,1068.4824605459326,None,None,1068.9820356658151,None,,,,,,,,,,,,,,,,,,,,,,,,,,,,,,,,,,,,,,,,,,,,,,07_DS,7,29,M,2022-11-25_17h19.18.478,dynamic target,2022.1.3,120.10122525372583,
1,5,1,2,L,0,201,201,201,,,,,,,None,1070.0144772896965,None,1069.023659934268,None,1069.5149047996601,None,1,[0.00938469354150584],[0.5178816544685105],1070.0144772896965,None,[1 2 0 3 2 3 0 1],space,0,0.7833388775543426,0.00231817517124,None,1070.0311437639357,None,1,1070.81378974592,None,None,1071.313367752215,None,,,,,,,,,,,,,,,,,,,,,,,,,,,,,,,,,,,,,,,,,,,,,,07_DS,7,29,M,2022-11-25_17h19.18.478,dynamic target,2022.1.3,120.10122525372583,
1,6,4,2,L,0,202,202,202,,,,,,,None,1072.3458177146276,None,1071.3633805807222,1072.3624601354204,1071.846238489623,None,2,"[0.008632622379082022, 0.49137250902640517]","[0.4082126812354545, 0.9918795557241538]",1072.3458177146276,None,[1 2 0 0 2 2 2 0],space,0,1.1288650643837173,0.0025016228064487223,None,1072.8370625800198,None,1,1073.9694168417773,None,None,1074.4689900373837,None,,,,,,,,,,,,,,,,,,,,,,,,,,,,,,,,,,,,,,,,,,,,,,07_DS,7,29,M,2022-11-25_17h19.18.478,dynamic target,2022.1.3,120.10122525372583,
1,7,2,2,L,0,203,203,203,,,,,,,None,1075.501436151244,None,1074.510613022987,None,1075.0018655854801,None,1,[0.008650902997032972],[0.5174737079760234],1075.501436151244,None,[0 3 0 0 0 0 0 0],space,0,2.944500190886174,0.002740233019721927,None,1075.518086589851,None,1,1078.4655455193897,None,None,1078.9651312227893,None,,,,,,,,,,,,,,,,,,,,,,,,,,,,,,,,,,,,,,,,,,,,,,07_DS,7,29,M,2022-11-25_17h19.18.478,dynamic target,2022.1.3,120.10122525372583,
1,1,3,0,L,0,204,204,204,,,,,,,None,1079.9975741295239,None,1079.006760622644,None,1079.4980109401513,None,1,[0.009187775973259704],[0.5175275877008971],1079.9975741295239,None,[2 1 0 2 1 3 0 1],space,0,2.0958723920302873,0.002713934583880473,None,1080.0142303409557,None,1,1082.112428705579,None,None,1082.6120153711186,None,,,,,,,,,,,,,,,,,,,,,,,,,,,,,,,,,,,,,,,,,,,,,,07_DS,7,29,M,2022-11-25_17h19.18.478,dynamic target,2022.1.3,120.10122525372583,
1,2,3,2,L,0,205,205,205,,,,,,,None,1083.6444608435522,None,1082.6620153711156,None,1083.1449024648718,None,1,[0.009355187976325396],[0.5173890398400545],1083.6444608435522,None,[0 2 3 1 0 2 0 0],space,0,2.9769806851436442,0.0025593510836188216,None,1083.6611061507574,None,1,1086.6418742960377,None,None,1087.1414571130213,None,,,,,,,,,,,,,,,,,,,,,,,,,,,,,,,,,,,,,,,,,,,,,,07_DS,7,29,M,2022-11-25_17h19.18.478,dynamic target,2022.1.3,120.10122525372583,
1,3,2,2,L,0,206,206,206,,,,,,,None,1088.1738926433645,None,1087.1914632065636,None,1087.6743223983176,None,1,[0.008670145758514991],[0.517491347174655],1088.1738926433645,None,[1 1 0 2 2 3 3 3],space,0,2.078883922287787,0.002606175130495103,None,1088.190530253465,None,0,1090.2804144633737,None,None,1090.7799902246793,None,,,,,,,,,,,,,,,,,,,,,,,,,,,,,,,,,,,,,,,,,,,,,,07_DS,7,29,M,2022-11-25_17h19.18.478,dynamic target,2022.1.3,120.10122525372583,
1,4,3,2,L,0,207,207,207,,,,,,,None,1091.8041177579894,None,1090.830006260312,None,1091.304539430981,None,1,[0.008665335069963476],[0.5088734775781631],1091.8041177579894,None,[0 2 1 0 3 0 0 1],space,0,1.417048150255141,0.0029076450227876194,None,1091.8124379421024,None,0,1093.2278865421285,None,None,1093.7274594170217,None,,,,,,,,,,,,,,,,,,,,,,,,,,,,,,,,,,,,,,,,,,,,,,07_DS,7,29,M,2022-11-25_17h19.18.478,dynamic target,2022.1.3,120.10122525372583,
1,5,2,2,L,0,208,208,208,,,,,,,None,1094.7599141901264,None,1093.7690945897084,None,1094.2603679985223,None,1,[0.008685539967700606],[0.5176584384644229],1094.7599141901264,None,[3 2 2 3 1 0 0 0],space,0,2.852813255180081,0.0024464602320222184,None,1094.7765591766147,None,1,1097.6407668752581,None,None,1098.1403262802219,None,,,,,,,,,,,,,,,,,,,,,,,,,,,,,,,,,,,,,,,,,,,,,,07_DS,7,29,M,2022-11-25_17h19.18.478,dynamic target,2022.1.3,120.10122525372583,
1,6,3,2,L,0,209,209,209,,,,,,,None,1099.1727858640152,None,1098.1819768471141,None,1098.6732069597238,None,1,[0.008646733731438871],[0.5177427858870942],1099.1727858640152,None,[3 3 0 0 2 0 3 3],space,0,1.3356233778977185,0.002415671817288967,None,1099.189430850507,None,1,1100.5299638621,None,None,1101.029527115616,None,,,,,,,,,,,,,,,,,,,,,,,,,,,,,,,,,,,,,,,,,,,,,,07_DS,7,29,M,2022-11-25_17h19.18.478,dynamic target,2022.1.3,120.10122525372583,
1,7,4,2,L,0,210,210,210,,,,,,,None,1102.0619732294763,None,1101.0711642125752,None,1101.5624093986771,None,1,[0.008662448653922183],[0.517728033108142],1102.0619732294763,None,[0 0 2 2 0 1 0 3],space,0,2.910338200214028,0.0024285003273689654,None,1102.0786243095063,None,1,1104.9927919832116,None,None,1105.4923610095525,None,,,,,,,,,,,,,,,,,,,,,,,,,,,,,,,,,,,,,,,,,,,,,,07_DS,7,29,M,2022-11-25_17h19.18.478,dynamic target,2022.1.3,120.10122525372583,
1,8,3,2,L,0,211,211,211,,,,,,,None,1106.5248077648394,None,1105.5339971443755,None,1106.0252404062048,None,1,[0.008639998766739154],[0.5169294586085016],1106.5248077648394,None,[1 1 2 3 3 1 0 2],space,0,1.6316116475136369,0.003260108223912539,None,1106.5414678248271,None,1,1108.173395859474,None,None,1108.6729729036292,None,,,,,,,,,,,,,,,,,,,,,,,,,,,,,,,,,,,,,,,,,,,,,,07_DS,7,29,M,2022-11-25_17h19.18.478,dynamic target,2022.1.3,120.10122525372583,
1,1,4,2,L,0,212,212,212,,,,,,,None,1109.6971186534174,None,1108.714604548477,None,1109.1975160163893,None,1,[0.00873974040223402],[0.5171744830731768],1109.6971186534174,None,[0 0 1 2 2 2 2 3],space,0,1.8353138901911734,0.002919190676038852,None,1109.7137460007143,None,1,1111.5538274488972,None,None,1112.0534070587587,None,,,,,,,,,,,,,,,,,,,,,,,,,,,,,,,,,,,,,,,,,,,,,,07_DS,7,29,M,2022-11-25_17h19.18.478,dynamic target,2022.1.3,120.10122525372583,
1,2,4,2,L,0,213,213,213,,,,,,,None,1113.0858429098153,None,1112.1117366076833,None,1112.5862797204427,None,1,[0.008662127940624487],[0.5175712046220724],1113.0858429098153,None,[2 3 3 2 3 1 2 1],space,0,0.9414104452225729,0.0025705760235723574,None,1113.1024994419604,None,0,1114.0516754670243,None,None,1114.5512557183088,None,,,,,,,,,,,,,,,,,,,,,,,,,,,,,,,,,,,,,,,,,,,,,,07_DS,7,29,M,2022-11-25_17h19.18.478,dynamic target,2022.1.3,120.10122525372583,
1,3,3,2,L,0,214,214,214,,,,,,,None,1115.5753626618643,None,1114.5845639077706,None,1115.075808452446,None,1,[0.00870446200860897],[0.517592050942767],1115.5753626618643,None,[0 1 0 0 3 2 1 1],space,0,1.3640189551406365,0.0025189412917825393,None,1115.5920300982434,None,1,1116.9658348021985,None,None,1117.465420505598,None,,,,,,,,,,,,,,,,,,,,,,,,,,,,,,,,,,,,,,,,,,,,,,07_DS,7,29,M,2022-11-25_17h19.18.478,dynamic target,2022.1.3,120.10122525372583,
1,4,4,2,L,0,215,215,215,,,,,,,None,1118.4978746372763,None,1117.5070563197078,None,1117.9983226728473,None,1,[0.008686181387020042],[0.5177084696333623],1118.4978746372763,None,[0 3 2 0 2 1 3 3],space,0,1.610381111560855,0.0026350392690801527,None,1118.5145196237681,None,1,1120.1214429760112,None,None,1120.6210395836374,None,,,,,,,,,,,,,,,,,,,,,,,,,,,,,,,,,,,,,,,,,,,,,,07_DS,7,29,M,2022-11-25_17h19.18.478,dynamic target,2022.1.3,120.10122525372583,
1,5,3,2,L,0,216,216,216,,,,,,,None,1121.6451671169475,None,1120.6710684477766,None,1121.145591997065,None,1,[0.008679446425958304],[0.5088141457381425],1121.6451671169475,None,[0 3 1 1 0 3 3 0],space,0,0.8069353107166535,0.0029515826536226086,None,1121.6534911496165,None,1,1122.4611254576594,None,None,1122.9607050675172,None,,,,,,,,,,,,,,,,,,,,,,,,,,,,,,,,,,,,,,,,,,,,,,07_DS,7,29,M,2022-11-25_17h19.18.478,dynamic target,2022.1.3,120.10122525372583,
1,6,3,2,L,0,217,217,217,,,,,,,None,1123.9931495778146,None,1123.0107182167376,None,1123.493579332764,None,1,[0.008661486517667072],[0.5171443360886769],1123.9931495778146,None,[3 2 0 1 1 2 2 0],space,0,0.8181538391872891,0.0027819256611110177,None,1124.0098192591795,None,0,1124.8257690047903,None,None,1125.325339955411,None,,,,,,,,,,,,,,,,,,,,,,,,,,,,,,,,,,,,,,,,,,,,,,07_DS,7,29,M,2022-11-25_17h19.18.478,dynamic target,2022.1.3,120.10122525372583,
