tar_letter,tar_pos,tar_ori,tar_pos_type,block,trials.thisRepN,trials.thisTrialN,trials.thisN,trials.thisIndex,instructions_key.keys,instructions_key.rt,instructions_key.started,instructions_key.stopped,instruction_text.started,instruction_text.stopped,fix_key.keys,fix_key.started,fix_key.stopped,fixcross.started,fixcross.stopped,roi.started,roi.stopped,roi.numLooks,roi.timesOn,roi.timesOff,RedFixCross.started,RedFixCross.stopped,distori,search_resp.keys,search_resp.corr,search_resp.rt,search_resp.started,search_resp.stopped,fixcross_shape.started,fixcross_shape.stopped,correct,feedback_text.started,feedback_text.stopped,break_key.keys,break_key.started,break_key.stopped,break_key.rt,text_q1.started,text_q1.stopped,key_resp1.keys,key_resp1.rt,key_resp1.started,key_resp1.stopped,text_q2.started,text_q2.stopped,key_resp_2.keys,key_resp_2.rt,key_resp_2.started,key_resp_2.stopped,image.started,image.stopped,text_q1_2.started,text_q1_2.stopped,slider.response,slider.rt,slider.started,slider.stopped,mouse.x,mouse.y,mouse.leftButton,mouse.midButton,mouse.rightButton,mouse.time,mouse.started,mouse.stopped,key_resp_3.keys,key_resp_3.rt,key_resp_3.started,key_resp_3.stopped,text_q4.started,text_q4.stopped,key_resp1_3.keys,key_resp1_3.rt,key_resp1_3.started,key_resp1_3.stopped,finish_text.started,finish_text.stopped,key_resp.keys,key_resp.rt,key_resp.started,key_resp.stopped,participant,group,age,gender,date,expName,psychopyVersion,frameRate,
,,,,,,,,,space,7.442180921864292,108.1341343299714,None,,,,,,,,,,,,,,,,,,,,,,,,,,,,,,,,,,,,,,,,,,,,,,,,,,,,,,,,,,,,,,,,,,,,,,,,,,08_YY,8,27,F,2022-11-29_09h22.23.107,dynamic target,2022.1.3,120.08461520709254,
0,4,3,0,T,0,0,0,0,,,,,108.1341343299714,None,None,151.05709458365095,None,150.06680545448307,151.073730519646,150.5575229100923,None,4,"[0.00898795971306754, 0.4421707988167327, 0.45821403749687306, 0.4914900788946852]","[0.31697984797051504, 0.45029216321358945, 0.4748079586931908, 0.9919819086198913]",151.05709458365095,None,[1 0 0 1 0 0 2 3],space,0,3.5222479787660177,0.0075312328713152965,None,151.55669897102212,None,1,155.08713805132788,None,None,155.58671982768163,None,,,,,,,,,,,,,,,,,,,,,,,,,,,,,,,,,,,,,,,,,,,,,,08_YY,8,27,F,2022-11-29_09h22.23.107,dynamic target,2022.1.3,120.08461520709254,
0,5,2,2,T,0,1,1,1,,,,,,,None,156.6191695245816,None,155.64503396303144,None,156.11960939707478,None,1,[0.008837861042593431],[0.5177368199415469],156.6191695245816,None,[3 3 1 0 1 1 2 3],space,0,3.5734816583419615,0.001748745730083101,None,156.6358474753756,None,1,160.20792707000646,None,None,160.70750916708374,None,,,,,,,,,,,,,,,,,,,,,,,,,,,,,,,,,,,,,,,,,,,,,,08_YY,8,27,F,2022-11-29_09h22.23.107,dynamic target,2022.1.3,120.08461520709254,
0,6,3,2,T,0,2,2,2,,,,,,,None,161.73994378997213,None,160.75746011240062,None,161.2404057923975,None,1,[0.008721438355678401],[0.5169706111291816],161.73994378997213,None,[2 1 1 1 2 0 2 1],space,0,4.757802184431512,0.002751969323526282,None,161.75661532629283,None,1,166.51104844883594,None,None,167.01065075150353,None,,,,,,,,,,,,,,,,,,,,,,,,,,,,,,,,,,,,,,,,,,,,,,08_YY,8,27,F,2022-11-29_09h22.23.107,dynamic target,2022.1.3,120.08461520709254,
0,7,3,2,T,0,3,3,3,,,,,,,None,168.04312578557233,None,167.06895269935444,None,167.5435143422808,None,1,[0.00869000743750803],[0.5177602327682962],168.04312578557233,None,[2 2 3 1 2 0 0 2],space,0,2.8532200376416768,0.002210587793342711,None,168.05977711630294,None,1,170.9157571211074,None,None,171.41534402903943,None,,,,,,,,,,,,,,,,,,,,,,,,,,,,,,,,,,,,,,,,,,,,,,08_YY,8,27,F,2022-11-29_09h22.23.107,dynamic target,2022.1.3,120.08461520709254,
0,8,1,2,T,0,4,4,4,,,,,,,None,172.44781938383198,None,171.4652968986984,None,171.94823744711653,None,1,[0.00872881499981304],[0.5175572146945342],172.44781938383198,None,[2 0 2 1 2 0 1 2],space,0,3.1686629778569113,0.002341443044542757,None,172.4644729596282,None,1,175.63687956409808,None,None,176.13651137334176,None,,,,,,,,,,,,,,,,,,,,,,,,,,,,,,,,,,,,,,,,,,,,,,08_YY,8,27,F,2022-11-29_09h22.23.107,dynamic target,2022.1.3,120.08461520709254,
0,3,4,0,T,0,5,5,5,,,,,,,None,177.1689334880075,None,176.19481075540352,None,176.66936951181674,None,1,[0.008631956455928957],[0.5177996817778876],177.1689334880075,None,[2 3 3 2 1 2 2 0],space,0,3.1835637988772305,0.002086147015234019,None,177.18560149636824,None,1,180.37462896282136,None,None,180.87423543489643,None,,,,,,,,,,,,,,,,,,,,,,,,,,,,,,,,,,,,,,,,,,,,,,08_YY,8,27,F,2022-11-29_09h22.23.107,dynamic target,2022.1.3,120.08461520709254,
0,4,2,2,T,0,6,6,6,,,,,,,None,181.90671784560936,None,180.9325563054431,None,181.40713045659163,None,1,[0.008590903828007868],[0.5176787689599678],181.90671784560936,None,[1 0 1 3 2 2 2 1],space,0,2.4301675759115824,0.0021746667441675527,None,181.92335089509152,None,1,184.35467481988962,None,None,184.8542777640045,None,,,,,,,,,,,,,,,,,,,,,,,,,,,,,,,,,,,,,,,,,,,,,,08_YY,8,27,F,2022-11-29_09h22.23.107,dynamic target,2022.1.3,120.08461520709254,
0,1,2,0,T,0,7,7,7,,,,,,,None,185.88680347241075,None,184.90423191655782,None,185.38721415905115,None,1,[0.008751907103032863],[0.5178695995348335],185.88680347241075,None,[0 1 3 1 1 0 0 3],space,0,2.7210527058477965,0.0021236716829662328,None,185.90342690018338,None,1,188.62618375092075,None,None,189.12577226247112,None,,,,,,,,,,,,,,,,,,,,,,,,,,,,,,,,,,,,,,,,,,,,,,08_YY,8,27,F,2022-11-29_09h22.23.107,dynamic target,2022.1.3,120.08461520709254,
0,2,3,2,T,0,8,8,8,,,,,,,None,190.15823286397563,None,189.18411750801556,None,189.65869101771705,None,1,[0.008794563349056261],[0.5169760634314571],190.15823286397563,None,[2 0 0 0 3 2 0 1],space,0,2.5942786630396313,0.002791739056874576,None,190.174889005561,None,1,192.77277594983093,None,None,193.27237344164377,None,,,,,,,,,,,,,,,,,,,,,,,,,,,,,,,,,,,,,,,,,,,,,,08_YY,8,27,F,2022-11-29_09h22.23.107,dynamic target,2022.1.3,120.08461520709254,
0,3,3,2,T,0,9,9,9,,,,,,,None,194.30486643623726,None,193.33065839114101,None,193.8052578794584,None,1,[0.008634522245301923],[0.5179674202495335],194.30486643623726,None,[2 3 1 1 0 2 1 0],space,0,2.91147628237195,0.0020585647810094088,None,194.32149884427213,None,1,197.23577614643455,None,None,197.73534477311836,None,,,,,,,,,,,,,,,,,,,,,,,,,,,,,,,,,,,,,,,,,,,,,,08_YY,8,27,F,2022-11-29_09h22.23.107,dynamic target,2022.1.3,120.08461520709254,
0,4,4,2,T,0,10,10,10,,,,,,,None,198.76782878744962,None,197.7936505696532,None,198.26824556783959,None,1,[0.008620731128075931],[0.5177996817778876],198.76782878744962,None,[2 1 2 0 3 3 0 0],space,0,3.0719368928564563,0.002010776956240079,None,198.78451411488754,None,1,201.85695917412363,None,None,202.3565720606718,None,,,,,,,,,,,,,,,,,,,,,,,,,,,,,,,,,,,,,,,,,,,,,,08_YY,8,27,F,2022-11-29_09h22.23.107,dynamic target,2022.1.3,120.08461520709254,
0,7,1,0,T,0,11,11,11,,,,,,,None,203.38903875592564,None,202.41492885226785,None,202.88943308565968,None,1,[0.008703157107447623],[0.5171514992707671],203.38903875592564,None,[3 3 1 1 1 2 0 1],space,0,2.163455387867316,0.00277377853217331,None,203.4056637873166,None,1,205.57062286778887,None,None,206.07016744019865,None,,,,,,,,,,,,,,,,,,,,,,,,,,,,,,,,,,,,,,,,,,,,,,08_YY,8,27,F,2022-11-29_09h22.23.107,dynamic target,2022.1.3,120.08461520709254,
0,8,4,2,T,0,12,12,12,,,,,,,None,207.1026363805181,None,206.12014564702622,None,206.6030685556434,None,1,[0.008685196582746357],[0.5172785058382487],207.1026363805181,None,[2 2 3 1 2 1 1 0],space,0,2.848915605465436,0.002570439734881802,None,207.11930663394423,None,1,209.96695712469955,None,None,210.46656391749815,None,,,,,,,,,,,,,,,,,,,,,,,,,,,,,,,,,,,,,,,,,,,,,,08_YY,8,27,F,2022-11-29_09h22.23.107,dynamic target,2022.1.3,120.08461520709254,
0,1,4,2,T,0,13,13,13,,,,,,,None,211.49903253709408,None,210.524855922916,None,210.99945861847004,None,1,[0.008647671915014143],[0.5171813265708352],211.49903253709408,None,[2 2 1 2 1 3 3 0],space,0,2.2138686563332612,0.002732084456965822,None,211.5156854714428,None,1,213.7305619816102,None,None,214.23015017243705,None,,,,,,,,,,,,,,,,,,,,,,,,,,,,,,,,,,,,,,,,,,,,,,08_YY,8,27,F,2022-11-29_09h22.23.107,dynamic target,2022.1.3,120.08461520709254,
0,5,2,0,T,0,14,14,14,,,,,,,None,215.26260435946824,None,214.2884322354214,None,214.7630240263711,None,1,[0.00875318999760566],[0.5176864663276319],215.26260435946824,None,[0 0 0 2 1 1 2 0],space,0,4.353079400319075,0.0023177094944912824,None,215.27926146322466,None,1,219.6339940133721,None,None,220.13360657919674,None,,,,,,,,,,,,,,,,,,,,,,,,,,,,,,,,,,,,,,,,,,,,,,08_YY,8,27,F,2022-11-29_09h22.23.107,dynamic target,2022.1.3,120.08461520709254,
0,6,4,2,T,0,15,15,15,,,,,,,None,221.1660713501085,None,220.18354180905453,None,220.66646375550067,None,1,[0.008658255795580772],[0.5177268775082666],221.1660713501085,None,[3 3 2 1 2 3 3 0],space,0,3.745480302322221,0.002081656884001859,None,221.18272524662848,None,1,224.92963290932585,None,None,225.42925156889982,None,,,,,,,,,,,,,,,,,,,,,,,,,,,,,,,,,,,,,,,,,,,,,,08_YY,8,27,F,2022-11-29_09h22.23.107,dynamic target,2022.1.3,120.08461520709254,
0,5,3,1,T,0,16,16,16,,,,,,,None,226.46172243356114,None,225.48753651839706,None,225.96212863007054,None,1,[0.008732342960001915],[0.5169677246165065],226.46172243356114,None,[0 1 2 1 2 2 0 3],space,0,3.2669567600835308,0.002805530173873194,None,226.47836221824014,None,1,229.74235210389907,None,None,230.2419726878149,None,,,,,,,,,,,,,,,,,,,,,,,,,,,,,,,,,,,,,,,,,,,,,,08_YY,8,27,F,2022-11-29_09h22.23.107,dynamic target,2022.1.3,120.08461520709254,
0,6,4,2,T,0,17,17,17,,,,,,,None,231.27445477780407,None,230.2835501799418,None,230.77483724076296,None,1,[0.007769530547193426],[0.5165863841903047],231.27445477780407,None,[0 1 0 1 3 3 3 2],space,0,2.4685665362535474,0.002514313094707177,None,231.2910775641294,None,1,233.76405290785692,None,None,234.26363468421067,None,,,,,,,,,,,,,,,,,,,,,,,,,,,,,,,,,,,,,,,,,,,,,,08_YY,8,27,F,2022-11-29_09h22.23.107,dynamic target,2022.1.3,120.08461520709254,
0,7,1,2,T,0,18,18,18,,,,,,,None,235.2961122840686,None,234.3135946097898,None,234.79654734570704,None,1,[0.008747096248271191],[0.5171114088138893],235.2961122840686,None,[0 1 0 1 1 1 0 0],space,0,2.0154362894149926,0.0026012292053110286,None,235.31276169045736,None,1,237.3277875937033,None,None,237.82736423847854,None,,,,,,,,,,,,,,,,,,,,,,,,,,,,,,,,,,,,,,,,,,,,,,08_YY,8,27,F,2022-11-29_09h22.23.107,dynamic target,2022.1.3,120.08461520709254,
0,6,1,1,T,0,19,19,19,,,,,,,None,238.85152964336476,None,237.8689965743506,None,238.35191499283656,None,1,[0.008637408757977028],[0.5173112196509919],238.85152964336476,None,[0 1 1 0 2 2 3 3],space,0,3.7085053550092653,0.0027519693232989084,None,238.86816237212338,None,1,242.58178405098988,None,None,243.08138314642082,None,,,,,,,,,,,,,,,,,,,,,,,,,,,,,,,,,,,,,,,,,,,,,,08_YY,8,27,F,2022-11-29_09h22.23.107,dynamic target,2022.1.3,120.08461520709254,
0,7,1,2,T,0,20,20,20,,,,,,,None,244.11386042555523,None,243.1313389025927,None,243.6142489822637,None,1,[0.008676537044038923],[0.5173221242555428],244.11386042555523,None,[1 3 0 1 3 3 3 1],space,0,1.613373908022595,0.0023484989651478827,None,244.13051047339127,None,1,245.7458345213472,None,None,246.245444842106,None,,,,,,,,,,,,,,,,,,,,,,,,,,,,,,,,,,,,,,,,,,,,,,08_YY,8,27,F,2022-11-29_09h22.23.107,dynamic target,2022.1.3,120.08461520709254,
0,8,3,2,T,0,21,21,21,,,,,,,None,247.277938478147,None,246.3037538458775,None,246.77831645097467,None,1,[0.008959415307799645],[0.5175661949569985],247.277938478147,None,[1 2 2 3 1 2 0 2],space,0,1.6814465416673556,0.0025091815164159925,None,247.2945647924323,None,1,248.97652014192658,None,None,249.47612019952857,None,,,,,,,,,,,,,,,,,,,,,,,,,,,,,,,,,,,,,,,,,,,,,,08_YY,8,27,F,2022-11-29_09h22.23.107,dynamic target,2022.1.3,120.08461520709254,
0,7,3,1,T,0,22,22,22,,,,,,,None,250.500242627445,None,249.50941564470736,None,250.00068570717463,None,1,[0.00878750742867851],[0.5172618282083477],250.500242627445,None,[0 2 3 3 1 1 1 2],space,0,2.5077249702112567,0.002736253864441096,None,250.5169305206723,None,1,253.0231918482309,None,None,253.5227588712964,None,,,,,,,,,,,,,,,,,,,,,,,,,,,,,,,,,,,,,,,,,,,,,,08_YY,8,27,F,2022-11-29_09h22.23.107,dynamic target,2022.1.3,120.08461520709254,
0,8,4,2,T,0,23,23,23,,,,,,,None,254.55526886424377,None,253.57274477549186,None,254.0556846824627,None,1,[0.00863676731069063],[0.5173920420122613],254.55526886424377,None,[3 3 3 2 1 3 3 0],space,0,1.4756628678485413,0.0023568377803258045,None,254.57191057326463,None,1,256.0457153083644,None,None,256.5453012541256,None,,,,,,,,,,,,,,,,,,,,,,,,,,,,,,,,,,,,,,,,,,,,,,08_YY,8,27,F,2022-11-29_09h22.23.107,dynamic target,2022.1.3,120.08461520709254,
0,1,1,2,T,0,24,24,24,,,,,,,None,257.5777817404967,None,256.6035858828993,None,257.078205576807,None,1,[0.008710213027825375],[0.5175475929850109],257.5777817404967,None,[0 2 1 3 3 1 0 3],space,0,3.237331195329034,0.0024152094856617623,None,257.59443563701643,None,1,260.83343281112025,None,None,261.3330303029331,None,,,,,,,,,,,,,,,,,,,,,,,,,,,,,,,,,,,,,,,,,,,,,,08_YY,8,27,F,2022-11-29_09h22.23.107,dynamic target,2022.1.3,120.08461520709254,
0,2,2,2,T,0,25,25,25,,,,,,,None,262.3655082235148,None,261.3829834933156,None,261.8658903657499,None,1,[0.008701232765361055],[0.5175777410086084],262.3655082235148,None,[0 0 1 0 3 2 3 1],space,0,1.985367484569224,0.0024386223124110984,None,262.38216212003454,None,1,264.3721725403461,None,None,264.8717802953158,None,,,,,,,,,,,,,,,,,,,,,,,,,,,,,,,,,,,,,,,,,,,,,,08_YY,8,27,F,2022-11-29_09h22.23.107,dynamic target,2022.1.3,120.08461520709254,
0,8,1,0,T,0,26,26,26,,,,,,,None,265.9042575744504,None,264.9300957135604,None,265.40468558016823,None,1,[0.008588338038862275],[0.5173641390540524],265.9042575744504,None,[0 1 0 2 0 2 1 2],space,0,1.390620424883764,0.002448564745918702,None,265.92091147097017,None,1,267.3114371017614,None,None,267.8110333106794,None,,,,,,,,,,,,,,,,,,,,,,,,,,,,,,,,,,,,,,,,,,,,,,08_YY,8,27,F,2022-11-29_09h22.23.107,dynamic target,2022.1.3,120.08461520709254,
0,1,3,2,T,0,27,27,27,,,,,,,None,268.84353849277204,None,267.86938400852614,None,268.34390331592977,None,1,[0.008686158753789641],[0.5172130782127624],268.84353849277204,None,[1 2 1 2 3 3 2 3],space,0,1.6841271499774848,0.002832791684568292,None,268.8601696179121,None,1,270.54209257431717,None,None,271.04169615987934,None,,,,,,,,,,,,,,,,,,,,,,,,,,,,,,,,,,,,,,,,,,,,,,08_YY,8,27,F,2022-11-29_09h22.23.107,dynamic target,2022.1.3,120.08461520709254,
0,2,4,2,T,0,28,28,28,,,,,,,None,272.0741853057891,None,271.0833191947654,None,271.5745950302585,None,1,[0.009020352802508569],[0.5173599696468045],272.0741853057891,None,[1 2 0 0 3 2 1 2],space,0,4.724453980211138,0.002124313130252631,None,272.09086069079376,None,1,276.82027576461314,None,None,277.3198854439249,None,,,,,,,,,,,,,,,,,,,,,,,,,,,,,,,,,,,,,,,,,,,,,,08_YY,8,27,F,2022-11-29_09h22.23.107,dynamic target,2022.1.3,120.08461520709254,
0,3,4,2,T,0,29,29,29,,,,,,,None,278.3523235947732,None,277.369826767532,None,277.85276218437184,None,1,[0.008658576519565031],[0.517113012432219],278.3523235947732,None,[2 1 3 1 3 2 2 2],space,0,2.143015027874071,0.002598984140149696,None,278.3690086014876,None,1,280.5172323216318,None,None,281.0168250025899,None,,,,,,,,,,,,,,,,,,,,,,,,,,,,,,,,,,,,,,,,,,,,,,08_YY,8,27,F,2022-11-29_09h22.23.107,dynamic target,2022.1.3,120.08461520709254,
0,4,2,2,T,0,30,30,30,,,,,,,None,282.049310941263,None,281.0751631922137,None,281.54972130717965,None,1,[0.008621051851605444],[0.5171771571631325],282.049310941263,None,[2 2 3 3 0 0 2 3],space,0,2.5265354125886006,0.002719896958069512,None,282.0659635548882,None,1,284.5972086137392,None,None,285.09680899206495,None,,,,,,,,,,,,,,,,,,,,,,,,,,,,,,,,,,,,,,,,,,,,,,08_YY,8,27,F,2022-11-29_09h22.23.107,dynamic target,2022.1.3,120.08461520709254,
0,5,1,2,T,0,31,31,31,,,,,,,None,286.1292705557403,None,285.1551189580073,None,285.629692146985,None,1,[0.008651841322489418],[0.5173423298456328],286.1292705557403,None,[0 3 1 2 1 0 0 0],space,0,2.701145067846028,0.0024610729683445243,None,286.14592669732565,None,1,288.85203093443783,None,None,289.3516338785527,None,,,,,,,,,,,,,,,,,,,,,,,,,,,,,,,,,,,,,,,,,,,,,,08_YY,8,27,F,2022-11-29_09h22.23.107,dynamic target,2022.1.3,120.08461520709254,
0,6,3,2,T,0,32,32,32,,,,,,,None,290.3841194965023,None,289.40993101554886,None,289.88452601373524,None,1,[0.008665311716185897],[0.5170629795420609],290.3841194965023,None,[2 1 1 1 1 0 0 1],space,0,3.0228873413727797,0.002998285090598074,None,290.4007672992725,None,1,293.42332475611374,None,None,293.9228773466147,None,,,,,,,,,,,,,,,,,,,,,,,,,,,,,,,,,,,,,,,,,,,,,,08_YY,8,27,F,2022-11-29_09h22.23.107,dynamic target,2022.1.3,120.08461520709254,
0,7,1,2,T,0,33,33,33,,,,,,,None,294.9553594366039,None,293.98118250170205,None,294.45574029594445,None,1,[0.00859475251195363],[0.5177403479017357],294.9553594366039,None,[0 1 1 1 0 1 1 0],space,0,1.1714022785956786,0.0020207193897476827,None,294.97200595647973,None,1,296.14604600652547,None,None,296.6456547236659,None,,,,,,,,,,,,,,,,,,,,,,,,,,,,,,,,,,,,,,,,,,,,,,08_YY,8,27,F,2022-11-29_09h22.23.107,dynamic target,2022.1.3,120.08461520709254,
0,8,1,2,T,0,34,34,34,,,,,,,None,297.67812622977476,None,296.70398040506757,None,297.17852601181085,None,1,[0.008578395605582045],[0.5167884400930234],297.67812622977476,None,[1 2 2 2 1 0 3 2],space,0,1.3934790348223487,0.0030011716037279257,None,297.6947679387956,None,1,299.0852942110341,None,None,299.5848862505447,None,,,,,,,,,,,,,,,,,,,,,,,,,,,,,,,,,,,,,,,,,,,,,,08_YY,8,27,F,2022-11-29_09h22.23.107,dynamic target,2022.1.3,120.08461520709254,
0,1,3,2,T,0,35,35,35,,,,,,,None,300.6173356267211,None,299.6432109697753,None,300.1177732541487,None,1,[0.008628749219496967],[0.5171540650601401],300.6173356267211,None,[1 2 0 2 0 1 1 1],space,0,2.4054936636698585,0.0027083509062322264,None,300.6339866367282,None,1,303.04036724141406,None,None,303.53994228257096,None,,,,,,,,,,,,,,,,,,,,,,,,,,,,,,,,,,,,,,,,,,,,,,08_YY,8,27,F,2022-11-29_09h22.23.107,dynamic target,2022.1.3,120.08461520709254,
0,2,1,2,T,0,36,36,36,,,,,,,None,304.57245323768916,None,303.5983038850218,None,304.07284564308134,None,1,[0.008736833091234075],[0.5177903807921211],304.57245323768916,None,[0 2 1 0 3 2 3 3],space,0,4.546010715103193,0.002188457861166171,None,304.5890981539467,None,1,309.1353347986128,None,None,309.6349441572008,None,,,,,,,,,,,,,,,,,,,,,,,,,,,,,,,,,,,,,,,,,,,,,,08_YY,8,27,F,2022-11-29_09h22.23.107,dynamic target,2022.1.3,120.08461520709254,
0,3,1,2,T,0,37,37,37,,,,,,,None,310.66741983271686,None,309.6932826675484,None,310.16783693383036,None,1,[0.008680706451514197],[0.5179940403129422],310.66741983271686,None,[2 0 3 0 1 3 1 2],space,0,2.098828609173779,0.002009494061667283,None,310.6840605795669,None,1,312.78233511837425,None,None,313.28194126972556,None,,,,,,,,,,,,,,,,,,,,,,,,,,,,,,,,,,,,,,,,,,,,,,08_YY,8,27,F,2022-11-29_09h22.23.107,dynamic target,2022.1.3,120.08461520709254,
0,4,2,2,T,0,38,38,38,,,,,,,None,314.3144021919536,None,313.33190279892324,None,313.8148378950393,None,1,[0.00919803370743466],[0.5175902492310342],314.3144021919536,None,[3 1 2 2 2 0 3 2],space,0,2.6923479387075986,0.0022272654236985545,None,314.3310564091971,None,1,317.02886320462585,None,None,317.52844466025584,None,,,,,,,,,,,,,,,,,,,,,,,,,,,,,,,,,,,,,,,,,,,,,,08_YY,8,27,F,2022-11-29_09h22.23.107,dynamic target,2022.1.3,120.08461520709254,
0,5,3,2,T,0,39,39,39,,,,,,,None,318.56092193939025,None,317.5867507775142,None,318.0613236457684,None,1,[0.008824390649124325],[0.5178910880197236],318.56092193939025,None,[2 0 3 1 0 1 1 3],space,0,2.4293378638153627,0.002030341099271027,None,318.5775630069638,None,1,321.0089148347197,None,None,321.5085219482423,None,,,,,,,,,,,,,,,,,,,,,,,,,,,,,,,,,,,,,,,,,,,,,,08_YY,8,27,F,2022-11-29_09h22.23.107,dynamic target,2022.1.3,120.08461520709254,
0,6,1,2,T,0,40,40,40,,,,,,,None,322.5409694000766,None,321.55846776198064,None,322.04151094196845,None,1,[0.008498214691826433],[0.5173914005649749],322.5409694000766,None,[0 1 2 0 2 1 0 1],space,0,5.873065775978148,0.0022862785760935367,None,322.5576505581073,None,1,328.43612259212705,None,None,328.93569570894186,None,,,,,,,,,,,,,,,,,,,,,,,,,,,,,,,,,,,,,,,,,,,,,,08_YY,8,27,F,2022-11-29_09h22.23.107,dynamic target,2022.1.3,120.08461520709254,
0,7,4,2,T,0,41,41,41,,,,,,,None,329.9682073055076,None,328.98568033024276,None,329.4686167092534,None,1,[0.008614637378741463],[0.5169221818575807],329.9682073055076,None,[2 1 3 1 2 0 1 1],space,0,3.2150181299132328,0.0030762209389649797,None,329.98486922011875,None,1,333.1988775313514,None,None,333.698470533033,None,,,,,,,,,,,,,,,,,,,,,,,,,,,,,,,,,,,,,,,,,,,,,,08_YY,8,27,F,2022-11-29_09h22.23.107,dynamic target,2022.1.3,120.08461520709254,
0,8,2,2,T,0,42,42,42,,,,,,,None,334.72262824055156,None,333.7317595637387,None,334.22303796502115,None,1,[0.009424464607945993],[0.5175645913386688],334.72262824055156,None,[1 0 0 3 3 0 2 2],space,0,3.3715947769335344,0.0025155959895073465,None,334.7392484610875,None,1,338.1114742415607,None,None,338.6111044471863,None,,,,,,,,,,,,,,,,,,,,,,,,,,,,,,,,,,,,,,,,,,,,,,08_YY,8,27,F,2022-11-29_09h22.23.107,dynamic target,2022.1.3,120.08461520709254,
0,1,1,2,T,0,43,43,43,,,,,,,None,339.6435445223767,None,338.6694070364845,None,339.14398984717195,None,1,[0.00859924264318579],[0.517707313365463],339.6435445223767,None,[2 2 3 1 2 0 3 1],space,0,3.682228786662563,0.001995382220911779,None,339.6602490932339,None,1,343.34050653169743,None,None,343.8400870251566,None,,,,,,,,,,,,,,,,,,,,,,,,,,,,,,,,,,,,,,,,,,,,,,08_YY,8,27,F,2022-11-29_09h22.23.107,dynamic target,2022.1.3,120.08461520709254,
0,2,2,2,T,0,44,44,44,,,,,,,None,344.8726043947479,None,343.89841431017635,None,344.37300962908625,None,1,[0.008755114339692227],[0.5171418775612437],344.8726043947479,None,[1 1 0 0 3 1 0 2],space,0,2.6936346820123163,0.0029354232544847036,None,344.8892573290966,None,1,347.5870378251857,None,None,348.0866163943028,None,,,,,,,,,,,,,,,,,,,,,,,,,,,,,,,,,,,,,,,,,,,,,,08_YY,8,27,F,2022-11-29_09h22.23.107,dynamic target,2022.1.3,120.08461520709254,
0,3,3,2,T,0,45,45,45,,,,,,,None,349.1191196520533,None,348.1365843379733,None,348.6195181511948,None,1,[0.008659859413910453],[0.5174007015509687],349.1191196520533,None,[2 3 1 2 0 0 0 1],space,0,2.4302814328091245,0.0021980795709168888,None,349.13576777554727,None,1,351.56709170034515,None,None,352.0666821362376,None,,,,,,,,,,,,,,,,,,,,,,,,,,,,,,,,,,,,,,,,,,,,,,08_YY,8,27,F,2022-11-29_09h22.23.107,dynamic target,2022.1.3,120.08461520709254,
0,4,3,2,T,0,46,46,46,,,,,,,None,353.09084850329486,None,352.10004557483126,None,352.5912511718441,None,1,[0.00868776237189195],[0.5174831275303404],353.09084850329486,None,[2 3 1 1 1 3 1 2],space,0,2.235200307364039,0.002773137084886912,None,353.1074998340255,None,1,355.34730715608225,None,None,355.84689662980367,None,,,,,,,,,,,,,,,,,,,,,,,,,,,,,,,,,,,,,,,,,,,,,,08_YY,8,27,F,2022-11-29_09h22.23.107,dynamic target,2022.1.3,120.08461520709254,
0,5,2,2,T,0,47,47,47,,,,,,,None,356.879396359594,None,355.9052014641675,None,356.37979582090657,None,1,[0.008556907120691903],[0.5169709318529385],356.879396359594,None,[1 1 3 1 1 3 1 1],space,0,2.430452699240732,0.0026519035429828364,None,356.8960252396687,None,1,359.32737578453,None,None,359.826967503317,None,,,,,,,,,,,,,,,,,,,,,,,,,,,,,,,,,,,,,,,,,,,,,,08_YY,8,27,F,2022-11-29_09h22.23.107,dynamic target,2022.1.3,120.08461520709254,
0,6,4,2,T,0,48,48,48,,,,,,,None,360.8594338778471,None,359.8769902907327,None,360.359854506921,None,1,[0.009090270559454439],[0.5176643363956828],360.8594338778471,None,[3 0 1 3 3 2 0 3],space,0,2.786288218038635,0.0025649874323789845,None,360.8761060556153,None,1,363.6654672671041,None,None,364.16506507964044,None,,,,,,,,,,,,,,,,,,,,,,,,,,,,,,,,,,,,,,,,,,,,,,08_YY,8,27,F,2022-11-29_09h22.23.107,dynamic target,2022.1.3,120.08461520709254,
0,7,3,2,T,0,49,49,49,,,,,,,None,365.1975256811447,None,364.2150163456811,None,364.69795496975735,None,1,[0.008617844615173453],[0.517293259126518],365.1975256811447,None,[3 1 3 0 2 1 1 1],space,0,2.9921251319842668,0.0024825614532346663,None,365.21421806450326,None,1,368.2116968558496,None,None,368.7113158361473,None,,,,,,,,,,,,,,,,,,,,,,,,,,,,,,,,,,,,,,,,,,,,,,08_YY,8,27,F,2022-11-29_09h22.23.107,dynamic target,2022.1.3,120.08461520709254,
0,8,4,2,T,0,50,50,50,,,,,,,None,369.73546969498216,None,368.7446334112585,None,369.23588679609566,None,1,[0.008608543629179621],[0.5174661291766824],369.73546969498216,None,[3 3 0 2 3 0 2 1],space,0,1.5106759485627208,0.00256659105093604,None,369.75212904380396,None,1,371.2675415794163,None,None,371.7671329774798,None,,,,,,,,,,,,,,,,,,,,,,,,,,,,,,,,,,,,,,,,,,,,,,08_YY,8,27,F,2022-11-29_09h22.23.107,dynamic target,2022.1.3,120.08461520709254,
0,1,2,2,T,0,51,51,51,,,,,,,None,372.7996288585862,None,371.82545481019724,None,372.30004371463406,None,1,[0.008755114339692227],[0.5171056357880843],372.7996288585862,None,[2 1 0 2 0 0 1 0],space,0,3.8386691261291617,0.0030361304820871737,None,372.8162686432652,None,1,376.65475573846766,None,None,377.1543647763321,None,,,,,,,,,,,,,,,,,,,,,,,,,,,,,,,,,,,,,,,,,,,,,,08_YY,8,27,F,2022-11-29_09h22.23.107,dynamic target,2022.1.3,120.08461520709254,
0,2,3,2,T,0,52,52,52,,,,,,,None,378.1868507150052,None,377.20430962789965,None,377.6872575529619,None,1,[0.008639333100063595],[0.5168099285779135],378.1868507150052,None,[3 0 1 0 3 3 0 0],space,0,3.0750158399464453,0.00309161567429328,None,378.2035167990239,None,1,381.2759714799697,None,None,381.7755631987565,None,,,,,,,,,,,,,,,,,,,,,,,,,,,,,,,,,,,,,,,,,,,,,,08_YY,8,27,F,2022-11-29_09h22.23.107,dynamic target,2022.1.3,120.08461520709254,
0,3,1,2,T,0,53,53,53,,,,,,,None,382.8080379121018,None,381.82552023782296,None,382.30843897703267,None,1,[0.008639653823820481],[0.5171543857836696],382.8080379121018,None,[0 0 2 1 3 3 2 0],space,0,1.7498328430469883,0.002767364059081956,None,382.82466679217646,None,1,384.5732579333401,None,None,385.0728506142979,None,,,,,,,,,,,,,,,,,,,,,,,,,,,,,,,,,,,,,,,,,,,,,,08_YY,8,27,F,2022-11-29_09h22.23.107,dynamic target,2022.1.3,120.08461520709254,
0,2,3,1,T,0,54,54,54,,,,,,,None,386.1053240447486,None,385.1228034839569,None,385.6057395422438,None,1,[0.00858160284224141],[0.5174119268788218],386.1053240447486,None,[2 3 0 3 2 0 0 2],space,0,2.068469228696813,0.0025184825024098245,None,386.12198146922856,None,1,388.19527291819077,None,None,388.69486816493776,None,,,,,,,,,,,,,,,,,,,,,,,,,,,,,,,,,,,,,,,,,,,,,,08_YY,8,27,F,2022-11-29_09h22.23.107,dynamic target,2022.1.3,120.08461520709254,
0,3,2,2,T,0,55,55,55,,,,,,,None,389.71902170304884,None,388.73656015540973,None,389.21942725811095,None,1,[0.008829201504113371],[0.5175135962776949],389.71902170304884,None,[1 1 0 0 2 3 3 2],space,0,1.845933516919331,0.0024758262561590527,None,389.7356746373978,None,1,391.5841500293943,None,None,392.0837645195608,None,,,,,,,,,,,,,,,,,,,,,,,,,,,,,,,,,,,,,,,,,,,,,,08_YY,8,27,F,2022-11-29_09h22.23.107,dynamic target,2022.1.3,120.08461520709254,
0,4,3,2,T,0,56,56,56,,,,,,,None,393.11620812271144,None,392.14203086708585,None,392.6166284310616,None,1,[0.008791676836381157],[0.5171781193341758],393.11620812271144,None,[0 2 2 2 3 0 1 3],space,0,2.3696297030980986,0.0029017472706982517,None,393.13287548962467,None,1,395.5059030792356,None,None,396.0055117963763,None,,,,,,,,,,,,,,,,,,,,,,,,,,,,,,,,,,,,,,,,,,,,,,08_YY,8,27,F,2022-11-29_09h22.23.107,dynamic target,2022.1.3,120.08461520709254,
0,6,3,0,T,0,57,57,57,,,,,,,None,397.0379967728784,None,396.0638278560682,None,396.5384023279405,None,1,[0.008604374221476974],[0.5176566390275639],397.0379967728784,None,[0 0 0 0 2 3 2 1],space,0,2.255131358192557,0.0023125779159727244,None,397.05464938650357,None,1,399.31110932218576,None,None,399.8106933436049,None,,,,,,,,,,,,,,,,,,,,,,,,,,,,,,,,,,,,,,,,,,,,,,08_YY,8,27,F,2022-11-29_09h22.23.107,dynamic target,2022.1.3,120.08461520709254,
0,7,2,2,T,0,58,58,58,,,,,,,None,400.8431683776739,None,399.8690456450697,None,400.3436005527992,None,1,[0.008630032114069763],[0.5171588759149017],400.8431683776739,None,[0 2 0 0 0 3 3 1],space,0,3.378435812498992,0.002678202883089398,None,400.8598476113623,None,1,404.2403801345049,None,None,404.7399878894748,None,,,,,,,,,,,,,,,,,,,,,,,,,,,,,,,,,,,,,,,,,,,,,,08_YY,8,27,F,2022-11-29_09h22.23.107,dynamic target,2022.1.3,120.08461520709254,
0,8,3,2,T,0,59,59,59,,,,,,,None,405.77247222452957,None,404.7982734804193,None,405.2728960608399,None,1,[0.008664990992429011],[0.5176720337631195],405.77247222452957,None,[3 0 3 3 1 3 3 1],space,0,1.648208024937503,0.0023648558717468404,None,405.7891258003258,None,1,407.4377711117147,None,space,407.9456848075449,None,3.449763791244095,,,,,,,,,,,,,,,,,,,,,,,,,,,,,,,,,,,,,,,,,,,,,08_YY,8,27,F,2022-11-29_09h22.23.107,dynamic target,2022.1.3,120.08461520709254,
0,1,2,2,T,0,60,60,60,,,,,,,None,412.4419818925837,None,411.4594539551481,None,411.9423893719877,None,1,[0.00859924264318579],[0.5172291143953771],412.4419818925837,None,[3 2 2 2 0 2 1 3],space,0,2.7548553754872955,0.002614378875477996,None,412.4586338647616,None,1,415.21467734077737,None,None,415.7142921516676,None,,,,,,,,,,,,,,,,,,,,,,,,,,,,,,,,,,,,,,,,,,,,,,08_YY,8,27,F,2022-11-29_09h22.23.107,dynamic target,2022.1.3,120.08461520709254,
0,8,2,1,T,0,61,61,61,,,,,,,None,416.7467697515258,None,415.77262007813465,None,416.24720032303276,None,1,[0.00869225250312411],[0.5176675436321148],416.7467697515258,None,[1 0 1 0 3 2 1 1],space,0,1.2820445629949972,0.0022657522624740523,None,416.7634204408089,None,1,418.0456710485,None,None,418.54530574425684,None,,,,,,,,,,,,,,,,,,,,,,,,,,,,,,,,,,,,,,,,,,,,,,08_YY,8,27,F,2022-11-29_09h22.23.107,dynamic target,2022.1.3,120.08461520709254,
0,1,1,2,T,0,62,62,62,,,,,,,None,419.5777753260236,None,418.6036202003304,None,419.07818921990065,None,1,[0.008609826523752417],[0.5174016637217846],419.5777753260236,None,[2 0 3 2 1 3 1 2],space,0,2.1307511967468145,0.002571401905697712,None,419.5944064511639,None,1,421.72600385702253,None,None,422.22559108567833,None,,,,,,,,,,,,,,,,,,,,,,,,,,,,,,,,,,,,,,,,,,,,,,08_YY,8,27,F,2022-11-29_09h22.23.107,dynamic target,2022.1.3,120.08461520709254,
0,2,4,2,T,0,63,63,63,,,,,,,None,423.25807125132565,None,422.2839142012906,None,422.7584893146102,None,1,[0.008686158753562268],[0.5173375189906437],423.25807125132565,None,[3 0 2 3 0 2 1 0],space,0,4.546346512770242,0.0027872489254150423,None,423.27471103600465,None,1,427.82098424316746,None,None,428.32054837972004,None,,,,,,,,,,,,,,,,,,,,,,,,,,,,,,,,,,,,,,,,,,,,,,08_YY,8,27,F,2022-11-29_09h22.23.107,dynamic target,2022.1.3,120.08461520709254,
0,3,4,2,T,0,64,64,64,,,,,,,None,429.3530513167468,None,428.3788593078334,None,428.85347419088635,None,1,[0.008574226198106771],[0.5170568857924991],429.3530513167468,None,[1 2 1 1 0 2 2 3],space,0,2.4514607401035846,0.0028802587853533623,None,429.36968276261086,None,1,431.82601800093585,None,None,432.3256071539335,None,,,,,,,,,,,,,,,,,,,,,,,,,,,,,,,,,,,,,,,,,,,,,,08_YY,8,27,F,2022-11-29_09h22.23.107,dynamic target,2022.1.3,120.08461520709254,
0,4,2,2,T,0,65,65,65,,,,,,,None,433.35811041168404,None,432.37559722753645,None,432.8585015341814,None,1,[0.007837844685809614],[0.5168157016037185],433.35811041168404,None,[3 2 1 2 3 2 1 0],space,0,2.9096985111511913,0.002536122303808952,None,433.3747421782716,None,1,436.28901819753946,None,None,436.78861023705,None,,,,,,,,,,,,,,,,,,,,,,,,,,,,,,,,,,,,,,,,,,,,,,08_YY,8,27,F,2022-11-29_09h22.23.107,dynamic target,2022.1.3,120.08461520709254,
0,5,2,2,T,0,66,66,66,,,,,,,None,437.8210836675005,None,436.83857016262937,None,437.3215020515088,None,1,[0.00864574757315495],[0.5172429055126031],437.8210836675005,None,[0 1 0 1 1 3 2 0],space,0,2.8158008880664056,0.00267178840977067,None,437.83776899493864,None,1,440.6520520380543,None,None,441.1516687732864,None,,,,,,,,,,,,,,,,,,,,,,,,,,,,,,,,,,,,,,,,,,,,,,08_YY,8,27,F,2022-11-29_09h22.23.107,dynamic target,2022.1.3,120.08461520709254,
0,6,1,2,T,0,67,67,67,,,,,,,None,442.18415759847244,None,441.21001113231796,None,441.6845708509022,None,1,[0.008655369282905667],[0.517613662058011],442.18415759847244,None,[3 2 1 3 0 1 1 3],space,0,3.732221586416472,0.0025447818422890123,None,442.200817268018,None,1,445.931083863142,None,None,446.43066499804826,None,,,,,,,,,,,,,,,,,,,,,,,,,,,,,,,,,,,,,,,,,,,,,,08_YY,8,27,F,2022-11-29_09h22.23.107,dynamic target,2022.1.3,120.08461520709254,
0,7,2,2,T,0,68,68,68,,,,,,,None,447.46315430431986,None,446.48899613175195,None,446.96354911513936,None,1,[0.00863580513987472],[0.5090532269771302],447.46315430431986,None,[2 2 2 3 2 3 0 3],space,0,2.4125287370463866,0.0015890253498582751,None,447.4714746777447,None,1,449.88616843957357,None,None,450.38574123566485,None,,,,,,,,,,,,,,,,,,,,,,,,,,,,,,,,,,,,,,,,,,,,,,08_YY,8,27,F,2022-11-29_09h22.23.107,dynamic target,2022.1.3,120.08461520709254,
0,8,4,2,T,0,69,69,69,,,,,,,None,451.4182246085486,None,450.4357357993988,None,450.9186378609784,None,1,[0.008664990992429011],[0.5172515650513105],451.4182246085486,None,[0 3 0 2 1 0 2 1],space,0,2.129840341566023,0.0028334331316273165,None,451.4348759392792,None,1,453.5664560260607,None,None,454.0660442168873,None,,,,,,,,,,,,,,,,,,,,,,,,,,,,,,,,,,,,,,,,,,,,,,08_YY,8,27,F,2022-11-29_09h22.23.107,dynamic target,2022.1.3,120.08461520709254,
0,1,4,2,T,0,70,70,70,,,,,,,None,455.09851540227237,None,454.1243734262491,None,454.59893859713543,None,1,[0.008728494276056153],[0.5169670831689928],455.09851540227237,None,[2 1 0 3 3 1 3 1],space,0,2.2734543006140484,0.002941517003591798,None,455.1151827691856,None,1,457.3883065438208,None,None,457.8879152609615,None,,,,,,,,,,,,,,,,,,,,,,,,,,,,,,,,,,,,,,,,,,,,,,08_YY,8,27,F,2022-11-29_09h22.23.107,dynamic target,2022.1.3,120.08461520709254,
0,2,2,2,T,0,71,71,71,,,,,,,None,458.9203514874682,None,457.95453517681017,None,458.4207948879214,None,1,[0.009011372540044249],[0.5172942212973339],458.9203514874682,None,[3 1 2 3 1 3 3 3],space,0,2.643283954659182,0.002550234144564456,None,458.937038739248,None,1,461.58485016913346,None,None,462.0844261724614,None,,,,,,,,,,,,,,,,,,,,,,,,,,,,,,,,,,,,,,,,,,,,,,08_YY,8,27,F,2022-11-29_09h22.23.107,dynamic target,2022.1.3,120.08461520709254,
0,3,4,2,T,0,72,72,72,,,,,,,None,463.1169313545538,None,462.1260472830056,None,462.6173304951428,None,1,[0.008764094601929173],[0.5178981439401014],463.1169313545538,None,[0 2 1 1 2 1 2 0],space,0,2.2382192791303623,0.0020463772821130988,None,463.1335781951532,None,1,465.37340540207674,None,None,465.8730003281002,None,,,,,,,,,,,,,,,,,,,,,,,,,,,,,,,,,,,,,,,,,,,,,,08_YY,8,27,F,2022-11-29_09h22.23.107,dynamic target,2022.1.3,120.08461520709254,
0,8,4,0,T,0,73,73,73,,,,,,,None,466.90546766480134,None,465.931347177263,None,466.40586263598266,None,1,[0.008642219612966073],[0.5170363594786522],466.90546766480134,None,[3 2 0 1 1 2 3 0],space,0,1.730471076706408,0.002958836081006666,None,466.92216999059315,None,1,468.65400396222003,None,None,469.1536203767284,None,,,,,,,,,,,,,,,,,,,,,,,,,,,,,,,,,,,,,,,,,,,,,,08_YY,8,27,F,2022-11-29_09h22.23.107,dynamic target,2022.1.3,120.08461520709254,
0,7,2,1,T,0,74,74,74,,,,,,,None,470.1861098433617,None,469.2119553591158,None,469.686490061255,None,1,[0.008918362680105929],[0.5171980042009636],470.1861098433617,None,[2 1 2 3 0 3 1 3],space,0,1.827179201181707,0.002858770300690594,None,470.20273583692347,None,1,472.03457946233243,None,None,472.53417823703984,None,,,,,,,,,,,,,,,,,,,,,,,,,,,,,,,,,,,,,,,,,,,,,,08_YY,8,27,F,2022-11-29_09h22.23.107,dynamic target,2022.1.3,120.08461520709254,
0,8,3,2,T,0,75,75,75,,,,,,,None,473.5666622513709,None,472.59245997930043,None,473.0670559396576,None,1,[0.008648313362527915],[0.5174270008906205],473.5666622513709,None,[3 0 1 0 1 2 3 0],space,0,3.5810042316745694,0.002689748934471936,None,473.5833151857198,None,1,477.16369286348163,None,None,477.66330029772774,None,,,,,,,,,,,,,,,,,,,,,,,,,,,,,,,,,,,,,,,,,,,,,,08_YY,8,27,F,2022-11-29_09h22.23.107,dynamic target,2022.1.3,120.08461520709254,
0,1,4,2,T,0,76,76,76,,,,,,,None,478.6957583334429,None,477.7216025663024,None,478.19617511383285,None,1,[0.008635163692588321],[0.5171710634140254],478.6957583334429,None,[1 1 1 3 0 2 0 2],space,0,2.0038523924365563,0.002790135438544894,None,478.7124292283163,None,1,480.71910220468635,None,None,481.2186637754498,None,,,,,,,,,,,,,,,,,,,,,,,,,,,,,,,,,,,,,,,,,,,,,,08_YY,8,27,F,2022-11-29_09h22.23.107,dynamic target,2022.1.3,120.08461520709254,
0,2,3,2,T,0,77,77,77,,,,,,,None,482.25115741149057,None,481.2686480760269,None,481.75158573793215,None,1,[0.008650879151673507],[0.5171396324956277],482.25115741149057,None,[0 2 3 2 3 0 3 0],space,0,2.0645958491127203,0.002947290029396754,None,482.2678234955092,None,1,484.3327912034481,None,None,484.83238099789304,None,,,,,,,,,,,,,,,,,,,,,,,,,,,,,,,,,,,,,,,,,,,,,,08_YY,8,27,F,2022-11-29_09h22.23.107,dynamic target,2022.1.3,120.08461520709254,
0,3,1,2,T,0,78,78,78,,,,,,,None,485.86486308788244,None,484.8906595329172,None,485.3652776232068,None,1,[0.0087066850676365],[0.5174722229260169],485.86486308788244,None,[0 2 0 3 3 3 1 1],space,0,1.9390104081705886,0.002658959463587962,None,485.88152147453343,None,1,487.82158271350795,None,None,488.3211859783466,None,,,,,,,,,,,,,,,,,,,,,,,,,,,,,,,,,,,,,,,,,,,,,,08_YY,8,27,F,2022-11-29_09h22.23.107,dynamic target,2022.1.3,120.08461520709254,
0,4,4,2,T,0,79,79,79,,,,,,,None,489.35366806833576,None,488.3794699656728,None,488.85406817109583,None,1,[0.008689045266464746],[0.5170841473031942],489.35366806833576,None,[3 1 2 0 2 1 3 3],space,0,2.9621233583825415,0.003027791666909252,None,489.37031971979013,None,1,492.3345314500011,None,None,492.8341241309592,None,,,,,,,,,,,,,,,,,,,,,,,,,,,,,,,,,,,,,,,,,,,,,,08_YY,8,27,F,2022-11-29_09h22.23.107,dynamic target,2022.1.3,120.08461520709254,
0,5,4,2,T,0,80,80,80,,,,,,,None,493.86657126207,None,492.8840888673933,None,493.3670156246942,None,1,[0.008620731128075931],[0.5171973627536772],493.86657126207,None,[3 2 3 2 3 3 3 1],space,0,2.736676437987171,0.0025467061841482064,None,493.8832771158218,None,1,496.6226766377513,None,None,497.12228407199717,None,,,,,,,,,,,,,,,,,,,,,,,,,,,,,,,,,,,,,,,,,,,,,,08_YY,8,27,F,2022-11-29_09h22.23.107,dynamic target,2022.1.3,120.08461520709254,
0,6,4,2,T,0,81,81,81,,,,,,,None,498.15471644981994,None,497.17221833968415,None,497.6551268157368,None,1,[0.008656972901007975],[0.5175851176525157],498.15471644981994,None,[3 0 1 2 2 2 3 3],space,0,2.8803070746653248,0.0022955795620873687,None,498.1713883068644,None,1,501.05234594921194,None,None,501.55194664826143,None,,,,,,,,,,,,,,,,,,,,,,,,,,,,,,,,,,,,,,,,,,,,,,08_YY,8,27,F,2022-11-29_09h22.23.107,dynamic target,2022.1.3,120.08461520709254,
0,5,4,1,T,0,82,82,82,,,,,,,None,502.5844364356183,None,501.61023737078426,None,502.08484038706206,None,1,[0.008664028821385727],[0.5171498956524374],502.5844364356183,None,[1 1 3 0 0 2 3 0],space,0,2.2270135153414685,0.0029408755563054,None,502.6010845591122,None,1,504.83258289343394,None,None,505.3321778194576,None,,,,,,,,,,,,,,,,,,,,,,,,,,,,,,,,,,,,,,,,,,,,,,08_YY,8,27,F,2022-11-29_09h22.23.107,dynamic target,2022.1.3,120.08461520709254,
0,6,1,2,T,0,83,83,83,,,,,,,None,506.36465509859204,None,505.39045539231074,None,505.86506161582497,None,1,[0.008654727835391895],[0.5173099367564191],506.36465509859204,None,[0 0 2 2 2 2 0 1],space,0,2.718621941264928,0.00263522591308174,None,506.3813083536645,None,1,509.10404916821926,None,None,509.6036424906244,None,,,,,,,,,,,,,,,,,,,,,,,,,,,,,,,,,,,,,,,,,,,,,,08_YY,8,27,F,2022-11-29_09h22.23.107,dynamic target,2022.1.3,120.08461520709254,
0,7,4,2,T,0,84,84,84,,,,,,,None,510.6361332401523,None,509.6536280740961,None,510.1365397573852,None,1,[0.008580961394727638],[0.517429887403523],510.6361332401523,None,[0 2 0 0 2 1 3 1],space,0,2.3507329860576647,0.0025014841487518424,None,510.6527983620001,None,1,513.0091428692385,None,None,513.5087695469039,None,,,,,,,,,,,,,,,,,,,,,,,,,,,,,,,,,,,,,,,,,,,,,,08_YY,8,27,F,2022-11-29_09h22.23.107,dynamic target,2022.1.3,120.08461520709254,
0,8,4,2,T,0,85,85,85,,,,,,,None,514.5412484296567,None,513.5671032463968,514.566235368186,514.0417040176089,None,1,[0.3833010097341685],[0.8835725023084251],514.5412484296567,None,[1 0 3 1 2 1 2 0],space,0,2.239138793849861,0.002598021968651665,None,514.9242437897476,None,1,517.1640876743013,None,None,517.663682279601,None,,,,,,,,,,,,,,,,,,,,,,,,,,,,,,,,,,,,,,,,,,,,,,08_YY,8,27,F,2022-11-29_09h22.23.107,dynamic target,2022.1.3,120.08461520709254,
0,1,3,2,T,0,86,86,86,,,,,,,None,518.704488752061,None,517.7219723606768,None,518.20489142061,None,1,[0.008604053497947461],[0.517783324871516],518.704488752061,None,[3 0 1 2 2 2 1 1],space,0,1.7698819201805236,0.002246829566274755,None,518.7211695893677,None,1,520.4946549799242,None,None,520.9942707529852,None,,,,,,,,,,,,,,,,,,,,,,,,,,,,,,,,,,,,,,,,,,,,,,08_YY,8,27,F,2022-11-29_09h22.23.107,dynamic target,2022.1.3,120.08461520709254,
0,2,2,2,T,0,87,87,87,,,,,,,None,522.018431988464,None,521.044236772314,None,521.5188401093153,None,1,[0.008654407111862383],[0.5171797229525055],522.018431988464,None,[0 1 1 2 3 3 1 3],space,0,2.329031861376052,0.0030396584422760498,None,522.0350865264313,None,1,524.3665005425039,None,None,524.8660861675413,None,,,,,,,,,,,,,,,,,,,,,,,,,,,,,,,,,,,,,,,,,,,,,,08_YY,8,27,F,2022-11-29_09h22.23.107,dynamic target,2022.1.3,120.08461520709254,
0,1,3,1,T,0,88,88,88,,,,,,,None,525.8985775585168,None,524.9160448102261,None,525.3989972254196,None,1,[0.008758321576124217],[0.5175184071322292],525.8985775585168,None,[3 2 1 0 0 3 2 3],space,0,1.9203183128222463,0.0025005219777085586,None,525.9152138152356,None,1,527.838624364927,None,None,528.3382285919364,None,,,,,,,,,,,,,,,,,,,,,,,,,,,,,,,,,,,,,,,,,,,,,,08_YY,8,27,F,2022-11-29_09h22.23.107,dynamic target,2022.1.3,120.08461520709254,
0,2,4,2,T,0,89,89,89,,,,,,,None,529.3707020223871,None,528.3965010332113,None,528.8711178406061,None,1,[0.008675254149466127],[0.5175049367389875],529.3707020223871,None,[0 1 2 1 1 2 2 1],space,0,2.3679494318687375,0.0024399052069838945,None,529.3873325060799,None,1,531.7603976203586,None,None,532.2600053753284,None,,,,,,,,,,,,,,,,,,,,,,,,,,,,,,,,,,,,,,,,,,,,,,08_YY,8,27,F,2022-11-29_09h22.23.107,dynamic target,2022.1.3,120.08461520709254,
0,3,2,2,T,0,90,90,90,,,,,,,None,533.2924829751864,None,532.3183240008095,None,532.7928898131431,None,1,[0.008653765664575985],[0.5173865897099859],533.2924829751864,None,[2 0 2 1 1 3 1 0],space,0,2.5897933427215776,0.002480637111375472,None,533.3091384753245,None,1,535.8986965469928,None,None,536.3982430437444,None,,,,,,,,,,,,,,,,,,,,,,,,,,,,,,,,,,,,,,,,,,,,,,08_YY,8,27,F,2022-11-29_09h22.23.107,dynamic target,2022.1.3,120.08461520709254,
0,4,3,2,T,0,91,91,91,,,,,,,None,537.4307495087314,None,536.4565440294243,None,536.9311130489946,None,1,[0.008832729464074873],[0.5176835798147295],537.4307495087314,None,[2 1 2 2 1 1 2 0],space,0,2.915499119179003,0.0023831371199776186,None,537.4473960286073,None,1,540.3616582567579,None,None,540.8612490133738,None,,,,,,,,,,,,,,,,,,,,,,,,,,,,,,,,,,,,,,,,,,,,,,08_YY,8,27,F,2022-11-29_09h22.23.107,dynamic target,2022.1.3,120.08461520709254,
0,5,3,2,T,0,92,92,92,,,,,,,None,541.8937269339556,None,540.9112108632951,None,541.3941414692799,None,1,[0.00861912750974625],[0.5173083331383168],541.8937269339556,None,[2 0 2 0 3 1 0 1],space,0,2.885097082455559,0.002533556513981239,None,541.9103798683043,None,1,544.7996711941087,None,None,545.2992462352655,None,,,,,,,,,,,,,,,,,,,,,,,,,,,,,,,,,,,,,,,,,,,,,,08_YY,8,27,F,2022-11-29_09h22.23.107,dynamic target,2022.1.3,120.08461520709254,
0,6,4,2,T,0,93,93,93,,,,,,,None,546.3234340908077,None,545.332549377812,None,545.8238399665934,None,1,[0.008731380789186005],[0.5178824284810162],546.3234340908077,None,[1 1 3 3 3 1 2 2],space,0,3.063160931479615,0.0022051354915220145,None,546.3400671402899,None,1,549.4042320769197,None,None,549.903801986498,None,,,,,,,,,,,,,,,,,,,,,,,,,,,,,,,,,,,,,,,,,,,,,,08_YY,8,27,F,2022-11-29_09h22.23.107,dynamic target,2022.1.3,120.08461520709254,
0,7,3,2,T,0,94,94,94,,,,,,,None,550.9362885666185,None,549.9620872567191,None,550.4366780854978,None,1,[0.008601808432331381],[0.5176675436318874],550.9362885666185,None,[1 1 2 0 1 0 2 3],space,0,1.714196275546783,0.002211549964158621,None,550.9529649137942,None,1,552.6682181138947,None,None,553.1677841747891,None,,,,,,,,,,,,,,,,,,,,,,,,,,,,,,,,,,,,,,,,,,,,,,08_YY,8,27,F,2022-11-29_09h22.23.107,dynamic target,2022.1.3,120.08461520709254,
0,6,3,1,T,0,95,95,95,,,,,,,None,554.2002646611602,None,553.226128137439,None,553.7006737441825,None,1,[0.00872881499981304],[0.517491466345291],554.2002646611602,None,[1 3 1 0 0 1 0 1],space,0,3.298347267112149,0.0026547900558853144,None,554.2169188784037,None,1,557.5142242544698,None,None,558.0137787693126,None,,,,,,,,,,,,,,,,,,,,,,,,,,,,,,,,,,,,,,,,,,,,,,08_YY,8,27,F,2022-11-29_09h22.23.107,dynamic target,2022.1.3,120.08461520709254,
0,7,3,2,T,0,96,96,96,,,,,,,None,559.04625893496,None,558.0720909803206,None,558.5466689801533,None,1,[0.008747737695330216],[0.5171691390717115],559.04625893496,None,[3 2 3 2 1 1 2 3],space,0,2.420070233074739,0.002968137067000498,None,559.0629333577938,None,1,561.485919109004,None,None,561.985523656737,None,,,,,,,,,,,,,,,,,,,,,,,,,,,,,,,,,,,,,,,,,,,,,,08_YY,8,27,F,2022-11-29_09h22.23.107,dynamic target,2022.1.3,120.08461520709254,
0,8,3,2,T,0,97,97,97,,,,,,,None,563.0179746365318,None,562.0354790921851,None,562.518414509025,None,1,[0.008646389020441347],[0.5173317459650661],563.0179746365318,None,[3 2 0 3 2 1 0 3],space,0,1.5685293643819023,0.0025527999334826745,None,563.0346557945622,None,1,564.608361458125,None,None,565.1079377821765,None,,,,,,,,,,,,,,,,,,,,,,,,,,,,,,,,,,,,,,,,,,,,,,08_YY,8,27,F,2022-11-29_09h22.23.107,dynamic target,2022.1.3,120.08461520709254,
0,1,1,2,T,0,98,98,98,,,,,,,None,566.1404195514422,None,565.1662756510771,None,565.640848519331,None,1,[0.008670443294477082],[0.5173035222833278],566.1404195514422,None,[2 3 1 2 2 0 3 3],space,0,2.510068177236235,0.002810661752391752,None,566.1570853147373,None,1,568.671685457331,None,None,569.1712697994739,None,,,,,,,,,,,,,,,,,,,,,,,,,,,,,,,,,,,,,,,,,,,,,,08_YY,8,27,F,2022-11-29_09h22.23.107,dynamic target,2022.1.3,120.08461520709254,
0,2,1,2,T,0,99,99,99,,,,,,,None,570.2037528516341,None,569.2295826519291,None,569.7041827816938,None,1,[0.008666915334288205],[0.5173766472767056],570.2037528516341,None,[1 0 1 3 3 0 1 3],space,0,3.406752183292838,0.002793342674976884,None,570.2204051445356,None,1,573.6259082493009,None,None,574.1255237016384,None,,,,,,,,,,,,,,,,,,,,,,,,,,,,,,,,,,,,,,,,,,,,,,08_YY,8,27,F,2022-11-29_09h22.23.107,dynamic target,2022.1.3,120.08461520709254,
0,3,2,2,T,0,100,100,100,,,,,,,None,575.1580166962319,None,574.1838532317238,None,574.6584087809003,None,1,[0.008857425185397005],[0.5178330370379172],575.1580166962319,None,[3 1 3 0 1 0 2 0],space,0,2.227413137015901,0.0022439430535996507,None,575.1746564809109,None,1,577.4061288366165,None,None,577.9057600044131,None,,,,,,,,,,,,,,,,,,,,,,,,,,,,,,,,,,,,,,,,,,,,,,08_YY,8,27,F,2022-11-29_09h22.23.107,dynamic target,2022.1.3,120.08461520709254,
0,4,3,2,T,0,101,101,101,,,,,,,None,578.9382283032851,None,577.9556958757182,None,578.4386380277547,None,1,[0.008691931779594597],[0.5170386045442683],578.9382283032851,None,[1 3 1 0 0 0 1 2],space,0,2.81584161997057,0.0028546008929879463,None,578.9548876521071,None,1,581.769218162324,None,None,582.268819823544,None,,,,,,,,,,,,,,,,,,,,,,,,,,,,,,,,,,,,,,,,,,,,,,08_YY,8,27,F,2022-11-29_09h22.23.107,dynamic target,2022.1.3,120.08461520709254,
0,5,2,2,T,0,102,102,102,,,,,,,None,583.301311535243,None,582.3271602582338,None,582.8017126001739,None,1,[0.008636767310918003],[0.5171242377602994],583.301311535243,None,[1 1 3 2 3 3 3 1],space,0,3.7331350073864087,0.0028305466187248385,None,583.3179625452501,None,1,587.0482153492567,None,None,587.5478054644253,None,,,,,,,,,,,,,,,,,,,,,,,,,,,,,,,,,,,,,,,,,,,,,,08_YY,8,27,F,2022-11-29_09h22.23.107,dynamic target,2022.1.3,120.08461520709254,
0,6,1,2,T,0,103,103,103,,,,,,,None,588.571965096286,None,587.5810935329603,None,588.0723575016782,None,1,[0.00966885603315859],[0.5179388758442656],588.571965096286,None,[0 0 3 2 2 3 0 3],space,0,2.9576357929988717,0.002248753908133949,None,588.5886145026745,None,1,591.5445005675203,None,None,592.0440865132815,None,,,,,,,,,,,,,,,,,,,,,,,,,,,,,,,,,,,,,,,,,,,,,,08_YY,8,27,F,2022-11-29_09h22.23.107,dynamic target,2022.1.3,120.08461520709254,
0,7,4,2,T,0,104,104,104,,,,,,,None,593.0765807907696,None,592.0940631164908,None,592.5769959675415,None,1,[0.008641578165679675],[0.5170748463172004],593.0765807907696,None,[0 0 1 0 1 0 0 3],space,0,1.173642533327211,0.0030178492334016482,None,593.0932459126175,None,1,594.2672599840471,None,None,594.7668706255296,None,,,,,,,,,,,,,,,,,,,,,,,,,,,,,,,,,,,,,,,,,,,,,,08_YY,8,27,F,2022-11-29_09h22.23.107,dynamic target,2022.1.3,120.08461520709254,
0,6,1,1,T,0,105,105,105,,,,,,,None,595.7993081349309,None,594.8168122698607,None,595.2997521768316,None,1,[0.008660180137439966],[0.5170177575064372],595.7993081349309,None,[0 1 2 3 0 0 1 2],space,0,3.442271686658387,0.002856204511317628,None,595.8159992353947,None,1,599.2631656258648,None,None,599.7627137262347,None,,,,,,,,,,,,,,,,,,,,,,,,,,,,,,,,,,,,,,,,,,,,,,08_YY,8,27,F,2022-11-29_09h22.23.107,dynamic target,2022.1.3,120.08461520709254,
0,7,3,2,T,0,106,106,106,,,,,,,None,600.7952461698378,None,599.821064744805,None,600.2956655160169,None,1,[0.008627145601167285],[0.5172371324867981],600.7952461698378,None,[0 0 1 2 0 1 2 0],space,0,1.6628897917014456,0.002525859146089715,None,600.8118962176738,None,1,602.4771498828236,None,None,602.9767669387792,None,,,,,,,,,,,,,,,,,,,,,,,,,,,,,,,,,,,,,,,,,,,,,,08_YY,8,27,F,2022-11-29_09h22.23.107,dynamic target,2022.1.3,120.08461520709254,
0,8,1,2,T,0,107,107,107,,,,,,,None,604.0092657063985,None,603.0350679244593,None,603.5096722236315,None,1,[0.008641578165679675],[0.5173837031970834],604.0092657063985,None,[3 0 3 2 3 2 0 3],space,0,1.5525964546388877,0.0028568459588314,None,604.0259032460119,None,1,605.5829213370712,None,None,606.0825425624342,None,,,,,,,,,,,,,,,,,,,,,,,,,,,,,,,,,,,,,,,,,,,,,,08_YY,8,27,F,2022-11-29_09h22.23.107,dynamic target,2022.1.3,120.08461520709254,
0,1,2,2,T,0,108,108,108,,,,,,,None,607.115040047159,None,606.132514354789,None,606.6154250759073,None,1,[0.008794563349283635],[0.517140594666671],607.115040047159,None,[1 3 2 3 1 1 2 2],space,0,2.01533558218739,0.002958515357477154,None,607.1316788696672,None,1,609.1466810393626,None,None,609.6462775690044,None,,,,,,,,,,,,,,,,,,,,,,,,,,,,,,,,,,,,,,,,,,,,,,08_YY,8,27,F,2022-11-29_09h22.23.107,dynamic target,2022.1.3,120.08461520709254,
0,2,4,2,T,0,109,109,109,,,,,,,None,610.6704224475768,None,609.6795646753683,None,610.1708732246743,None,1,[0.008682951517130277],[0.5176566390277912],610.6704224475768,None,[0 1 1 3 2 1 2 3],space,0,1.8027628300351353,0.0023840992907935288,None,610.6870599871902,None,1,612.4939295030163,None,None,612.993506468515,None,,,,,,,,,,,,,,,,,,,,,,,,,,,,,,,,,,,,,,,,,,,,,,08_YY,8,27,F,2022-11-29_09h22.23.107,dynamic target,2022.1.3,120.08461520709254,
0,3,4,2,T,0,110,110,110,,,,,,,None,614.025985992715,None,613.0518680709658,None,613.5264226579716,None,1,[0.008637729481733913],[0.5171165403924078],614.025985992715,None,[3 1 3 2 3 1 1 3],space,0,3.7924557339281364,0.002969099238043782,None,614.0426645849564,None,1,617.8395345786605,None,None,618.3391477859321,None,,,,,,,,,,,,,,,,,,,,,,,,,,,,,,,,,,,,,,,,,,,,,,08_YY,8,27,F,2022-11-29_09h22.23.107,dynamic target,2022.1.3,120.08461520709254,
0,4,3,2,T,0,111,111,111,,,,,,,None,None,None,618.3974189443124,None,618.8636902014753,None,1,[0.0086268248774104],[0.509076960527409],None,None,[3 1 3 1 2 2 3 0],space,0,2.318294995571023,0.0026021913763543125,None,619.3716000486215,None,1,621.6947114914324,None,None,622.1942797973924,None,,,,,,,,,,,,,,,,,,,,,,,,,,,,,,,,,,,,,,,,,,,,,,08_YY,8,27,F,2022-11-29_09h22.23.107,dynamic target,2022.1.3,120.08461520709254,
0,1,3,0,T,0,112,112,112,,,,,,,None,623.218429166096,None,622.2275874300701,None,622.7188796224698,None,1,[0.008759283747167501],[0.5176094926505357],623.218429166096,None,[3 3 0 2 3 2 0 2],space,0,2.3748081072349123,0.002428679878676121,None,623.2350846662341,None,1,625.6081331028827,None,None,626.107721614433,None,,,,,,,,,,,,,,,,,,,,,,,,,,,,,,,,,,,,,,,,,,,,,,08_YY,8,27,F,2022-11-29_09h22.23.107,dynamic target,2022.1.3,120.08461520709254,
0,2,3,2,T,0,113,113,113,,,,,,,None,627.1402078738297,None,626.1659725672228,None,626.6406015621164,None,1,[0.008607581458136337],[0.5176858248803455],627.1402078738297,None,[1 3 1 2 1 3 3 2],space,0,2.613055750156718,0.0024793542163479287,None,627.1569002571882,None,1,629.7713548233148,None,None,630.2709587296007,None,,,,,,,,,,,,,,,,,,,,,,,,,,,,,,,,,,,,,,,,,,,,,,08_YY,8,27,F,2022-11-29_09h22.23.107,dynamic target,2022.1.3,120.08461520709254,
0,8,1,0,T,0,114,114,114,,,,,,,None,631.3034401781426,None,630.3292465656109,None,630.803853751296,None,1,[0.008745813353471021],[0.5177733824382358],631.3034401781426,None,[3 1 0 2 3 0 3 0],space,0,1.4094834659404114,0.002361327911103217,None,631.3200812457162,None,1,632.7272681496713,None,None,633.2268643585895,None,,,,,,,,,,,,,,,,,,,,,,,,,,,,,,,,,,,,,,,,,,,,,,08_YY,8,27,F,2022-11-29_09h22.23.107,dynamic target,2022.1.3,120.08461520709254,
0,1,4,2,T,0,115,115,115,,,,,,,None,634.2593413170002,None,633.2768076065388,None,633.7597539279827,None,1,[0.00862361764097841],[0.5175004466077553],634.2593413170002,None,[0 3 1 2 0 2 2 3],space,0,1.877435315056573,0.0027089923535186244,None,634.2759855918105,None,1,636.1577793607271,None,None,636.6573653064883,None,,,,,,,,,,,,,,,,,,,,,,,,,,,,,,,,,,,,,,,,,,,,,,08_YY,8,27,F,2022-11-29_09h22.23.107,dynamic target,2022.1.3,120.08461520709254,
0,4,3,0,T,0,116,116,116,,,,,,,None,637.6898400198334,None,636.7156585948005,None,637.1902635354202,None,1,[0.008674291978422843],[0.5172111538706758],637.6898400198334,None,[2 0 0 2 3 2 3 3],space,0,2.7352735927192953,0.00256210091970388,None,637.7065131597726,None,1,640.4459223034116,None,None,640.9455002310812,None,,,,,,,,,,,,,,,,,,,,,,,,,,,,,,,,,,,,,,,,,,,,,,08_YY,8,27,F,2022-11-29_09h22.23.107,dynamic target,2022.1.3,120.08461520709254,
0,5,1,2,T,0,117,117,117,,,,,,,None,641.9779868112018,None,640.9954758721196,None,641.4783830652777,None,1,[0.008660500861196851],[0.5171771571631325],641.9779868112018,None,[3 3 0 2 1 2 3 1],space,0,2.4307714985541224,0.0027407439954458823,None,641.9946586682463,None,1,644.4259906111356,None,None,644.925557634201,None,,,,,,,,,,,,,,,,,,,,,,,,,,,,,,,,,,,,,,,,,,,,,,08_YY,8,27,F,2022-11-29_09h22.23.107,dynamic target,2022.1.3,120.08461520709254,
0,3,4,0,T,0,118,118,118,,,,,,,None,645.9580708343849,None,644.9755233328062,None,645.4584513730019,None,1,[0.008677819938839093],[0.5171992870955364],645.9580708343849,None,[1 0 2 3 2 2 2 1],space,0,2.355217985651734,0.0028055301736458205,None,645.9746952243286,None,1,648.331078859853,None,None,648.8306779552839,None,,,,,,,,,,,,,,,,,,,,,,,,,,,,,,,,,,,,,,,,,,,,,,08_YY,8,27,F,2022-11-29_09h22.23.107,dynamic target,2022.1.3,120.08461520709254,
0,4,1,2,T,0,119,119,119,,,,,,,None,649.8631610074442,None,648.8806359565212,None,649.3635672039536,None,1,[0.008640936718393277],[0.5173795337898355],649.8631610074442,None,[1 2 0 3 2 0 0 3],space,0,1.8740122314845848,0.0027721749136162543,None,649.8798113760038,None,1,651.753256387452,None,space,652.2611838743994,None,1.8016082248764178,,,,,,,,,,,,,,,,,,,,,,,,,,,,,,,,,,,,,,,,,,,,,08_YY,8,27,F,2022-11-29_09h22.23.107,dynamic target,2022.1.3,120.08461520709254,
0,5,2,2,T,0,120,120,120,,,,,,,None,655.1088487977192,None,654.1263224639017,None,654.6092286948888,None,1,[0.00870123276558843],[0.5171165403926352],655.1088487977192,None,[2 1 3 2 3 1 1 3],space,0,8.17987483539514,0.002564025261790448,None,655.1254930725293,None,1,663.310430991655,None,None,663.8100105229429,None,,,,,,,,,,,,,,,,,,,,,,,,,,,,,,,,,,,,,,,,,,,,,,08_YY,8,27,F,2022-11-29_09h22.23.107,dynamic target,2022.1.3,120.08461520709254,
0,6,1,2,T,0,121,121,121,,,,,,,None,664.8424890849722,None,663.8683615415132,None,664.3428933571395,None,1,[0.008640615994636391],[0.517232642355566],664.8424890849722,None,[0 1 3 2 0 3 1 2],space,0,3.7268523517047925,0.0030271502198502276,None,664.8591509995833,None,1,668.5894137460234,None,None,669.0889714681028,None,,,,,,,,,,,,,,,,,,,,,,,,,,,,,,,,,,,,,,,,,,,,,,08_YY,8,27,F,2022-11-29_09h22.23.107,dynamic target,2022.1.3,120.08461520709254,
0,7,3,2,T,0,122,122,122,,,,,,,None,670.1214827439446,None,669.1473378814085,None,669.6218818845337,None,1,[0.008634522245301923],[0.5170286621109881],670.1214827439446,None,[1 2 3 2 2 2 0 0],space,0,2.2395287938147703,0.0028029643842728547,None,670.1381283016494,None,1,672.3779532635074,None,None,672.8775430579525,None,,,,,,,,,,,,,,,,,,,,,,,,,,,,,,,,,,,,,,,,,,,,,,08_YY,8,27,F,2022-11-29_09h22.23.107,dynamic target,2022.1.3,120.08461520709254,
0,8,1,2,T,0,123,123,123,,,,,,,None,673.9100232235999,None,672.9358264038315,None,673.4104072901769,None,1,[0.008799053480515795],[0.51776087421581],673.9100232235999,None,[2 0 3 1 0 3 3 0],space,0,2.0661000430557124,0.0023956453424034407,None,673.9266822516981,None,1,675.9916082655616,None,None,676.4912391126344,None,,,,,,,,,,,,,,,,,,,,,,,,,,,,,,,,,,,,,,,,,,,,,,08_YY,8,27,F,2022-11-29_09h22.23.107,dynamic target,2022.1.3,120.08461520709254,
0,1,1,2,T,0,124,124,124,,,,,,,None,677.5236884888111,None,676.5411964724246,None,677.0241331721588,None,1,[0.00871983473734872],[0.5170969762493769],677.5236884888111,None,[2 1 0 0 2 3 0 3],space,0,2.276960130888938,0.0029748722640761116,None,677.5403391780942,None,1,679.8218075407904,None,None,680.3214159372072,None,,,,,,,,,,,,,,,,,,,,,,,,,,,,,,,,,,,,,,,,,,,,,,08_YY,8,27,F,2022-11-29_09h22.23.107,dynamic target,2022.1.3,120.08461520709254,
0,2,2,2,T,0,125,125,125,,,,,,,None,681.3538819910138,None,680.3796973587444,None,680.8543055066007,None,1,[0.008652803493532701],[0.5169815157335051],681.3538819910138,None,[3 3 3 3 3 0 1 0],space,0,2.287467679280553,0.0032417143449947616,None,681.370553206611,None,1,683.6603039369791,None,None,684.1599078432647,None,,,,,,,,,,,,,,,,,,,,,,,,,,,,,,,,,,,,,,,,,,,,,,08_YY,8,27,F,2022-11-29_09h22.23.107,dynamic target,2022.1.3,120.08461520709254,
0,3,1,2,T,0,126,126,126,,,,,,,None,685.1924059694368,None,684.2182126776288,685.2173746267176,684.6928031856839,None,2,"[0.008685838030032755, 0.7758449544876385]","[0.050184913223347394, 1.283377309891648]",685.1924059694368,None,[2 3 1 2 0 3 3 2],space,0,2.529586456720608,0.0023574792276122025,None,685.9750887522534,None,1,688.5063424706432,None,None,689.005950225613,None,,,,,,,,,,,,,,,,,,,,,,,,,,,,,,,,,,,,,,,,,,,,,,08_YY,8,27,F,2022-11-29_09h22.23.107,dynamic target,2022.1.3,120.08461520709254,
0,5,1,0,T,0,127,127,127,,,,,,,None,690.0383986396184,None,689.0558767959321,None,689.5388244002706,None,1,[0.008638370929020311],[0.5172560551825427],690.0383986396184,None,[0 2 3 0 3 0 3 3],space,0,3.4256883493430905,0.002804247279300398,None,690.0550701759394,None,1,693.4856092899531,None,None,693.9851625219013,None,,,,,,,,,,,,,,,,,,,,,,,,,,,,,,,,,,,,,,,,,,,,,,08_YY,8,27,F,2022-11-29_09h22.23.107,dynamic target,2022.1.3,120.08461520709254,
0,6,4,2,T,0,128,128,128,,,,,,,None,695.0176491020218,None,694.0351291826773,None,694.5180652409645,None,1,[0.00760307497012036],[0.5161299944290931],695.0176491020218,None,[2 0 0 0 1 0 2 3],space,0,3.3905100959461834,0.002827339382520222,None,695.0343369952491,None,1,698.4231441886957,None,None,698.9227644518879,None,,,,,,,,,,,,,,,,,,,,,,,,,,,,,,,,,,,,,,,,,,,,,,08_YY,8,27,F,2022-11-29_09h22.23.107,dynamic target,2022.1.3,120.08461520709254,
0,7,3,2,T,0,129,129,129,,,,,,,None,699.9552487869428,None,698.9810696069756,None,699.4556546627284,None,1,[0.008644143955052641],[0.5172900518898587],699.9552487869428,None,[0 1 1 2 2 3 2 2],space,0,2.6138177895613808,0.0029941156831228,None,699.971869007479,None,1,702.5864120933343,None,None,703.0860192068568,None,,,,,,,,,,,,,,,,,,,,,,,,,,,,,,,,,,,,,,,,,,,,,,08_YY,8,27,F,2022-11-29_09h22.23.107,dynamic target,2022.1.3,120.08461520709254,
0,8,4,2,T,0,130,130,130,,,,,,,None,None,None,703.1526176342204,None,703.6188962680274,None,1,[0.008627145601167285],[0.508751105293868],None,None,[2 0 3 3 3 1 3 2],space,0,1.6902584240938268,0.0027413854427322804,None,704.1267804572813,None,1,705.8171006004268,None,None,706.3166794902673,None,,,,,,,,,,,,,,,,,,,,,,,,,,,,,,,,,,,,,,,,,,,,,,08_YY,8,27,F,2022-11-29_09h22.23.107,dynamic target,2022.1.3,120.08461520709254,
0,1,2,2,T,0,131,131,131,,,,,,,None,707.3491715226901,None,706.3750253772591,None,706.8495680974897,None,1,[0.008695459739783473],[0.517118464734267],707.3491715226901,None,[0 3 3 0 1 0 0 1],space,0,2.97913389960695,0.003053449559274668,None,707.365827984999,None,1,710.3466916873881,None,None,710.8462750673599,None,,,,,,,,,,,,,,,,,,,,,,,,,,,,,,,,,,,,,,,,,,,,,,08_YY,8,27,F,2022-11-29_09h22.23.107,dynamic target,2022.1.3,120.08461520709254,
0,2,1,2,T,0,132,132,132,,,,,,,None,711.8704151350776,None,710.8795868694451,None,711.3708476309266,None,1,[0.009227540283745839],[0.5176187936365295],711.8704151350776,None,[0 3 2 0 0 1 2 2],space,0,2.3612248189899674,0.0024581864552146726,None,711.8870863506747,None,1,714.2517719180139,None,None,714.7514127075202,None,,,,,,,,,,,,,,,,,,,,,,,,,,,,,,,,,,,,,,,,,,,,,,08_YY,8,27,F,2022-11-29_09h22.23.107,dynamic target,2022.1.3,120.08461520709254,
0,3,2,2,T,0,133,133,133,,,,,,,None,715.7838893452074,None,714.8097281257647,None,715.2842868821779,None,1,[0.00863035283782665],[0.5170017213240499],715.7838893452074,None,[2 2 3 2 3 2 0 0],space,0,1.8560767232386297,0.0029091239148328896,None,715.8005368272541,None,1,717.6573051708028,None,None,718.1569126050489,None,,,,,,,,,,,,,,,,,,,,,,,,,,,,,,,,,,,,,,,,,,,,,,08_YY,8,27,F,2022-11-29_09h22.23.107,dynamic target,2022.1.3,120.08461520709254,
0,4,4,2,T,0,134,134,134,,,,,,,None,719.189410731221,None,718.2068837559561,None,718.6898178899012,None,1,[0.00958129847526834],[0.5175533660108158],719.189410731221,None,[0 2 0 0 1 0 1 2],space,0,4.930085310293862,0.002649979200668895,None,719.2060627033989,None,1,724.1353299877578,None,None,724.634896369376,None,,,,,,,,,,,,,,,,,,,,,,,,,,,,,,,,,,,,,,,,,,,,,,08_YY,8,27,F,2022-11-29_09h22.23.107,dynamic target,2022.1.3,120.08461520709254,
0,5,3,2,T,0,135,135,135,,,,,,,None,725.6674050794288,None,724.6848806699531,None,725.1678433483034,None,1,[0.008653124217289587],[0.5171922311751587],725.6674050794288,None,[3 0 0 1 3 0 1 2],space,0,2.356462393433958,0.0026002670344951184,None,725.6840554479884,None,1,728.0404422907493,None,None,728.5400487628243,None,,,,,,,,,,,,,,,,,,,,,,,,,,,,,,,,,,,,,,,,,,,,,,08_YY,8,27,F,2022-11-29_09h22.23.107,dynamic target,2022.1.3,120.08461520709254,
0,6,4,2,T,0,136,136,136,,,,,,,None,729.5725125715653,None,728.590003877549,None,729.0729332006392,None,1,[0.008635163692588321],[0.5173971735907799],729.5725125715653,None,[3 0 3 3 2 0 1 3],space,0,3.0113929262938655,0.0025441403947752406,None,729.5891751276238,None,1,732.6033623385115,None,None,733.1029344931554,None,,,,,,,,,,,,,,,,,,,,,,,,,,,,,,,,,,,,,,,,,,,,,,08_YY,8,27,F,2022-11-29_09h22.23.107,dynamic target,2022.1.3,120.08461520709254,
0,7,3,2,T,0,137,137,137,,,,,,,None,734.135418186763,None,733.1529133414303,None,733.635841381626,None,1,[0.008680706451741571],[0.5175931357441641],734.135418186763,None,[3 3 1 1 1 2 1 0],space,0,1.7599584095653427,0.0024530548766961147,None,734.1520842707819,None,1,735.917269012418,None,None,736.416896972978,None,,,,,,,,,,,,,,,,,,,,,,,,,,,,,,,,,,,,,,,,,,,,,,08_YY,8,27,F,2022-11-29_09h22.23.107,dynamic target,2022.1.3,120.08461520709254,
0,8,3,2,T,0,138,138,138,,,,,,,None,737.4493838738222,None,736.475167169187,None,736.9497833351347,None,1,[0.008660500861196851],[0.5175815896923268],737.4493838738222,None,[2 1 0 1 0 3 1 1],space,0,2.3341804382127975,0.0023946831715875305,None,737.4660194890935,None,1,739.8057601327025,None,None,740.3053531343841,None,,,,,,,,,,,,,,,,,,,,,,,,,,,,,,,,,,,,,,,,,,,,,,08_YY,8,27,F,2022-11-29_09h22.23.107,dynamic target,2022.1.3,120.08461520709254,
0,1,1,2,T,0,139,139,139,,,,,,,None,741.337839393781,None,740.3552995895698,None,740.8382446281191,None,1,[0.008709571580538977],[0.51692121968631],741.337839393781,None,[3 1 0 1 3 1 0 0],space,0,3.293076173839154,0.002804888726586796,None,741.3544682738557,None,1,744.6517896861044,None,None,745.1513624821956,None,,,,,,,,,,,,,,,,,,,,,,,,,,,,,,,,,,,,,,,,,,,,,,08_YY,8,27,F,2022-11-29_09h22.23.107,dynamic target,2022.1.3,120.08461520709254,
0,2,4,2,T,0,140,140,140,,,,,,,None,746.1838141034377,None,745.2096766175457,None,745.6842523723126,None,1,[0.0086800650042278],[0.5172669597866388],746.1838141034377,None,[1 1 1 0 1 1 2 3],space,0,2.335724081165381,0.0028315087897681224,None,746.2004859604822,None,1,748.5402352636299,None,None,749.0398221715619,None,,,,,,,,,,,,,,,,,,,,,,,,,,,,,,,,,,,,,,,,,,,,,,08_YY,8,27,F,2022-11-29_09h22.23.107,dynamic target,2022.1.3,120.08461520709254,
0,3,3,2,T,0,141,141,141,,,,,,,None,750.0723161283265,None,749.0981536259892,None,749.5727226455595,None,1,[0.008794884072813147],[0.5173359153725414],750.0723161283265,None,[3 0 3 0 3 3 3 2],space,0,2.783322486399129,0.0028857110874014325,None,750.0889664968861,None,1,752.8700049295226,None,None,753.3695780463373,None,,,,,,,,,,,,,,,,,,,,,,,,,,,,,,,,,,,,,,,,,,,,,,08_YY,8,27,F,2022-11-29_09h22.23.107,dynamic target,2022.1.3,120.08461520709254,
0,4,2,2,T,0,142,142,142,,,,,,,None,754.4020720031019,None,753.4279547228,None,753.9024871798736,None,1,[0.008561397251924063],[0.5172480370911217],754.4020720031019,None,[1 2 2 2 0 0 2 3],space,0,2.7570895364694934,0.0024514512585938064,None,754.4187294275819,None,1,757.1747969578719,None,None,757.674385790146,None,,,,,,,,,,,,,,,,,,,,,,,,,,,,,,,,,,,,,,,,,,,,,,08_YY,8,27,F,2022-11-29_09h22.23.107,dynamic target,2022.1.3,120.08461520709254,
0,5,2,2,T,0,143,143,143,,,,,,,None,758.6985388471716,None,757.7076975922312,None,758.1989323750965,None,1,[0.008604374221704347],[0.5087065247057581],758.6985388471716,None,[0 2 0 1 0 2 1 2],space,0,2.6606729497966626,0.0027375367587865185,None,758.7068483159921,None,1,761.3713341687114,None,None,761.8709284532875,None,,,,,,,,,,,,,,,,,,,,,,,,,,,,,,,,,,,,,,,,,,,,,,08_YY,8,27,F,2022-11-29_09h22.23.107,dynamic target,2022.1.3,120.08461520709254,
0,6,4,2,T,0,144,144,144,,,,,,,None,762.9033896962394,None,761.9208896617615,None,762.4037971756434,None,1,[0.008633239350501754],[0.5175437443010651],762.9033896962394,None,[2 0 0 2 1 3 0 0],space,0,3.0390842066838104,0.002359724293000909,None,762.9200573838764,None,1,765.9591997816513,None,None,766.4588123474758,None,,,,,,,,,,,,,,,,,,,,,,,,,,,,,,,,,,,,,,,,,,,,,,08_YY,8,27,F,2022-11-29_09h22.23.107,dynamic target,2022.1.3,120.08461520709254,
0,7,1,2,T,0,145,145,145,,,,,,,None,767.4913018141092,None,766.5087748388444,None,766.9917346306818,None,1,[0.008663066650569817],[0.5171944762405474],767.4913018141092,None,[2 2 0 3 3 2 1 1],space,0,1.9880913905728903,0.002780513728794176,None,767.5079201103033,None,1,769.4979812049523,None,None,769.9975504730834,None,,,,,,,,,,,,,,,,,,,,,,,,,,,,,,,,,,,,,,,,,,,,,,08_YY,8,27,F,2022-11-29_09h22.23.107,dynamic target,2022.1.3,120.08461520709254,
0,8,1,2,T,0,146,146,146,,,,,,,None,771.030021979192,None,770.047509115768,None,770.5304644174744,None,1,[0.008599884090472187],[0.5170588101343583],771.030021979192,None,[2 2 1 1 0 2 0 2],space,0,1.4565746787857279,0.002771854190314116,None,771.0467028164987,None,1,772.5038074708725,None,None,773.0034251682756,None,,,,,,,,,,,,,,,,,,,,,,,,,,,,,,,,,,,,,,,,,,,,,,08_YY,8,27,F,2022-11-29_09h22.23.107,dynamic target,2022.1.3,120.08461520709254,
0,1,1,2,T,0,147,147,147,,,,,,,None,774.05254495824,None,773.0783717116603,None,773.5529942920809,None,1,[0.008658576519337657],[0.5089942138245078],774.05254495824,None,[2 3 0 1 2 0 0 2],space,0,1.6746587462287152,0.00256434598531996,None,774.0608816885715,None,1,775.7344975815831,None,None,776.2341066194475,None,,,,,,,,,,,,,,,,,,,,,,,,,,,,,,,,,,,,,,,,,,,,,,08_YY,8,27,F,2022-11-29_09h22.23.107,dynamic target,2022.1.3,120.08461520709254,
0,2,4,2,T,0,148,148,148,,,,,,,None,777.2582239157855,None,776.2674107241651,None,776.7586625053841,None,1,[0.00859699757756971],[0.5176867870513888],777.2582239157855,None,[1 1 3 3 3 0 2 0],space,0,2.379770985075538,0.002199041741732799,None,777.2749166198676,None,1,779.6562592909634,None,None,780.1558664044857,None,,,,,,,,,,,,,,,,,,,,,,,,,,,,,,,,,,,,,,,,,,,,,,08_YY,8,27,F,2022-11-29_09h22.23.107,dynamic target,2022.1.3,120.08461520709254,
0,3,3,2,T,0,149,149,149,,,,,,,None,781.1883436836201,None,780.2141612964163,None,780.6887707271671,None,1,[0.008319571615629684],[0.5165607262979393],781.1883436836201,None,[3 2 2 1 0 0 0 2],space,0,2.2741544403534135,0.002756138731001556,None,781.2049860340883,None,1,783.4781422018127,None,None,783.9777060176417,None,,,,,,,,,,,,,,,,,,,,,,,,,,,,,,,,,,,,,,,,,,,,,,08_YY,8,27,F,2022-11-29_09h22.23.107,dynamic target,2022.1.3,120.08461520709254,
0,4,3,2,T,0,150,150,150,,,,,,,None,785.0101970878932,None,784.0276877524295,None,784.5106087367046,None,1,[0.00785901244694287],[0.5165940815581962],785.0101970878932,None,[0 1 1 3 0 3 0 3],space,0,2.628405584294569,0.0028222078037742904,None,785.0268538709261,None,1,787.6580187809357,None,None,788.1576156313012,None,,,,,,,,,,,,,,,,,,,,,,,,,,,,,,,,,,,,,,,,,,,,,,08_YY,8,27,F,2022-11-29_09h22.23.107,dynamic target,2022.1.3,120.08461520709254,
0,3,2,1,T,0,151,151,151,,,,,,,None,789.1900884203044,None,788.1992428355948,None,788.690475694118,None,1,[0.00870444000202042],[0.5178904465724372],789.1900884203044,None,[1 0 0 3 3 2 1 1],space,0,2.1280975292236235,0.002005324654192009,None,789.2067442411662,None,1,791.3383284973552,None,None,791.8378871816054,None,,,,,,,,,,,,,,,,,,,,,,,,,,,,,,,,,,,,,,,,,,,,,,08_YY,8,27,F,2022-11-29_09h22.23.107,dynamic target,2022.1.3,120.08461520709254,
0,4,1,2,T,0,152,152,152,,,,,,,None,792.8703907600798,None,791.887868274946,None,792.3708097855351,None,1,[0.00866691533451558],[0.5175597804839072],792.8703907600798,None,[1 2 0 1 1 3 0 2],space,0,2.495786994317541,0.0025204068442690186,None,792.8870331105479,None,1,795.3849928270154,None,None,795.884581980013,None,,,,,,,,,,,,,,,,,,,,,,,,,,,,,,,,,,,,,,,,,,,,,,08_YY,8,27,F,2022-11-29_09h22.23.107,dynamic target,2022.1.3,120.08461520709254,
0,5,3,2,T,0,153,153,153,,,,,,,None,796.9170659943443,None,795.934531000988,None,796.4174590411837,None,1,[0.008505912059490583],[0.5174061538530168],796.9170659943443,None,[3 2 3 3 2 0 2 0],space,0,2.7206283884520417,0.0024549792187826824,None,796.9337263053371,None,1,799.6564687235102,None,None,800.1560665360463,None,,,,,,,,,,,,,,,,,,,,,,,,,,,,,,,,,,,,,,,,,,,,,,08_YY,8,27,F,2022-11-29_09h22.23.107,dynamic target,2022.1.3,120.08461520709254,
0,6,1,2,T,0,154,154,154,,,,,,,None,801.1885556819561,None,800.2144226861951,None,800.6889551432687,None,1,[0.008595073235937889],[0.5172284729483181],801.1885556819561,None,[0 1 0 3 2 1 3 2],space,0,3.0091356732084478,0.002442791720113746,None,801.2052163136727,None,1,804.2193865262066,None,None,804.718972471968,None,,,,,,,,,,,,,,,,,,,,,,,,,,,,,,,,,,,,,,,,,,,,,,08_YY,8,27,F,2022-11-29_09h22.23.107,dynamic target,2022.1.3,120.08461520709254,
0,7,2,2,T,0,155,155,155,,,,,,,None,805.751455844852,None,804.7772872487649,None,805.2518896235956,None,1,[0.008606619287547801],[0.5173375189910985],805.751455844852,None,[0 1 0 0 0 1 1 0],space,0,2.126619313896981,0.0025505548678665946,None,805.7681090999245,None,1,807.8996875830876,None,None,808.3992802640452,None,,,,,,,,,,,,,,,,,,,,,,,,,,,,,,,,,,,,,,,,,,,,,,08_YY,8,27,F,2022-11-29_09h22.23.107,dynamic target,2022.1.3,120.08461520709254,
0,8,1,2,T,0,156,156,156,,,,,,,None,809.4317517701538,None,808.4492129281139,None,808.9321672676492,None,1,[0.008747737695102842],[0.5169997969815086],809.4317517701538,None,[1 3 1 2 3 3 0 1],space,0,1.8385648909413703,0.0028151518831691646,None,809.4484018179901,None,1,811.2885505824502,None,None,811.7881560923544,None,,,,,,,,,,,,,,,,,,,,,,,,,,,,,,,,,,,,,,,,,,,,,,08_YY,8,27,F,2022-11-29_09h22.23.107,dynamic target,2022.1.3,120.08461520709254,
0,1,2,2,T,0,157,157,157,,,,,,,None,812.8206385030671,None,811.8381076791184,812.8372940032054,812.321007174909,None,1,[0.33346504384735454],[0.8339078028534459],812.8206385030671,None,[1 2 3 0 0 3 2 1],space,0,1.588922898721421,0.0025088607922043593,None,813.1536910962941,None,1,814.7440330165759,None,None,815.2436757304241,None,,,,,,,,,,,,,,,,,,,,,,,,,,,,,,,,,,,,,,,,,,,,,,08_YY,8,27,F,2022-11-29_09h22.23.107,dynamic target,2022.1.3,120.08461520709254,
0,2,1,2,T,0,158,158,158,,,,,,,None,816.2761039388392,None,815.2935994142304,None,815.7765361139645,None,1,[0.008723041974008083],[0.5173477821476808],816.2761039388392,None,[2 2 2 3 0 1 1 1],space,0,1.9542765334342675,0.002576533483534149,None,816.2927543073988,None,1,818.2494938178911,None,None,818.749082650165,None,,,,,,,,,,,,,,,,,,,,,,,,,,,,,,,,,,,,,,,,,,,,,,08_YY,8,27,F,2022-11-29_09h22.23.107,dynamic target,2022.1.3,120.08461520709254,
0,1,3,1,T,0,159,159,159,,,,,,,None,819.7815596085761,None,818.7990480280464,None,819.2819776718607,None,1,[0.008671405465520365],[0.5170049285602545],819.7815596085761,None,[3 1 2 1 2 0 0 0],space,0,3.744708320484051,0.0028834660224674735,None,819.7982173537798,None,1,823.545116677662,None,None,824.044731488552,None,,,,,,,,,,,,,,,,,,,,,,,,,,,,,,,,,,,,,,,,,,,,,,08_YY,8,27,F,2022-11-29_09h22.23.107,dynamic target,2022.1.3,120.08461520709254,
0,2,4,2,T,0,160,160,160,,,,,,,None,825.077195618017,None,824.1030135515366,None,824.5776140020248,None,1,[0.008759604470924387],[0.517000759153234],825.077195618017,None,[1 3 2 0 0 3 1 2],space,0,1.9530045434178191,0.0029190663476583723,None,825.0938543253915,None,1,827.0505761960826,None,None,827.550165669804,None,,,,,,,,,,,,,,,,,,,,,,,,,,,,,,,,,,,,,,,,,,,,,,08_YY,8,27,F,2022-11-29_09h22.23.107,dynamic target,2022.1.3,120.08461520709254,
0,3,3,2,T,0,161,161,161,,,,,,,None,828.5826484012405,None,827.6084875025217,None,828.0830715961038,None,1,[0.008637729481961287],[0.5173160305062083],828.5826484012405,None,[1 2 0 0 0 3 3 1],space,0,1.9991778451619666,0.002508219345145335,None,828.5993000526946,None,1,830.5976380627135,None,None,831.0972695512338,None,,,,,,,,,,,,,,,,,,,,,,,,,,,,,,,,,,,,,,,,,,,,,,08_YY,8,27,F,2022-11-29_09h22.23.107,dynamic target,2022.1.3,120.08461520709254,
0,7,4,0,T,0,162,162,162,,,,,,,None,832.12972854912,None,831.1555468033634,None,831.6301122949735,None,1,[0.008698666976215463],[0.517151819994524],832.12972854912,None,[2 0 3 3 1 1 0 2],space,0,2.724301315751518,0.0027426683373050764,None,832.1464013683353,None,1,834.8691450694027,None,None,835.3687595595694,None,,,,,,,,,,,,,,,,,,,,,,,,,,,,,,,,,,,,,,,,,,,,,,08_YY,8,27,F,2022-11-29_09h22.23.107,dynamic target,2022.1.3,120.08461520709254,
0,6,4,1,T,0,163,163,163,,,,,,,None,836.4012371594276,None,835.4187127499517,None,835.901622508899,None,1,[0.008667556781801977],[0.5174202656939997],836.4012371594276,None,[3 3 0 3 1 2 2 3],space,0,3.204819759125485,0.002728235773247434,None,836.417865077331,None,1,839.6235432330677,None,None,840.1231513087611,None,,,,,,,,,,,,,,,,,,,,,,,,,,,,,,,,,,,,,,,,,,,,,,08_YY,8,27,F,2022-11-29_09h22.23.107,dynamic target,2022.1.3,120.08461520709254,
0,7,3,2,T,0,164,164,164,,,,,,,None,841.1556292293426,None,840.1814362582581,None,840.6560402367068,None,1,[0.008617523891643941],[0.5176765238943517],841.1556292293426,None,[3 2 0 0 3 3 2 1],space,0,2.177529062581243,0.002384740737852553,None,841.1722658067852,None,1,843.3538156012173,None,None,843.8534130930299,None,,,,,,,,,,,,,,,,,,,,,,,,,,,,,,,,,,,,,,,,,,,,,,08_YY,8,27,F,2022-11-29_09h22.23.107,dynamic target,2022.1.3,120.08461520709254,
0,8,3,2,T,0,165,165,165,,,,,,,None,844.8858570169041,None,843.9033723771618,None,844.386302020976,None,1,[0.008714061711998511],[0.5171187854580239],844.8858570169041,None,[0 2 2 1 3 2 3 0],space,0,1.311845563588804,0.0027224627469877305,None,844.9025231009232,None,1,846.218098179284,None,None,846.7177145937923,None,,,,,,,,,,,,,,,,,,,,,,,,,,,,,,,,,,,,,,,,,,,,,,08_YY,8,27,F,2022-11-29_09h22.23.107,dynamic target,2022.1.3,120.08461520709254,
0,6,3,0,T,0,166,166,166,,,,,,,None,847.7502043811492,None,846.7760498969033,None,847.2506336697616,None,1,[0.008675895596752525],[0.5176511867252884],847.7502043811492,None,[2 0 0 0 3 3 3 1],space,0,2.4152378897622384,0.0023286140981326753,None,847.7668416000388,None,1,850.1814927056216,None,None,850.6810930839471,None,,,,,,,,,,,,,,,,,,,,,,,,,,,,,,,,,,,,,,,,,,,,,,08_YY,8,27,F,2022-11-29_09h22.23.107,dynamic target,2022.1.3,120.08461520709254,
0,2,2,0,T,0,167,167,167,,,,,,,None,851.713593134461,None,850.7394809857378,None,851.2140185743897,None,1,[0.00866563243971541],[0.5175546489053886],851.713593134461,None,[0 3 1 3 0 0 3 3],space,0,2.0512226348621425,0.002501163424767583,None,851.7302537661776,None,1,853.7869156936176,None,None,854.2864904140507,None,,,,,,,,,,,,,,,,,,,,,,,,,,,,,,,,,,,,,,,,,,,,,,08_YY,8,27,F,2022-11-29_09h22.23.107,dynamic target,2022.1.3,120.08461520709254,
0,3,2,2,T,0,168,168,168,,,,,,,None,855.3189500533845,None,854.3447808158503,None,854.8193774176548,None,1,[0.008749020590130385],[0.5171986456480226],855.3189500533845,None,[2 0 2 1 3 2 2 3],space,0,1.9022432897861563,0.0027378574823160307,None,855.3356167788502,None,1,857.2423776014298,None,None,857.7419526425862,None,,,,,,,,,,,,,,,,,,,,,,,,,,,,,,,,,,,,,,,,,,,,,,08_YY,8,27,F,2022-11-29_09h22.23.107,dynamic target,2022.1.3,120.08461520709254,
0,4,2,2,T,0,169,169,169,,,,,,,None,858.7744469200748,None,857.8002712680673,None,858.2748784537525,None,1,[0.00872336269776497],[0.5176620913298393],858.7744469200748,None,[1 1 2 0 1 3 3 3],space,0,2.4620205664512014,0.002276336142585933,None,858.7911053067255,None,1,861.255744721931,None,None,861.755316876575,None,,,,,,,,,,,,,,,,,,,,,,,,,,,,,,,,,,,,,,,,,,,,,,08_YY,8,27,F,2022-11-29_09h22.23.107,dynamic target,2022.1.3,120.08461520709254,
0,5,1,2,T,0,170,170,170,,,,,,,None,862.7878153234706,None,861.8136290875827,None,862.2882211992564,None,1,[0.008639653824047855],[0.5171069186831119],862.7878153234706,None,[1 0 0 1 1 3 3 0],space,0,2.689479386335506,0.0029258015442792384,None,862.8044676163722,None,1,865.4938903747302,None,None,865.9935093550276,None,,,,,,,,,,,,,,,,,,,,,,,,,,,,,,,,,,,,,,,,,,,,,,08_YY,8,27,F,2022-11-29_09h22.23.107,dynamic target,2022.1.3,120.08461520709254,
0,6,2,2,T,0,171,171,171,,,,,,,None,867.0259651456772,None,866.0434724878437,None,866.526402773105,None,1,[0.008670764018006594],[0.517223662093329],867.0259651456772,None,[3 1 1 1 1 2 2 2],space,0,2.1476571820596746,0.0028295844476815546,None,867.0426427757475,None,1,869.1908680995102,None,None,869.6904607804682,None,,,,,,,,,,,,,,,,,,,,,,,,,,,,,,,,,,,,,,,,,,,,,,08_YY,8,27,F,2022-11-29_09h22.23.107,dynamic target,2022.1.3,120.08461520709254,
0,7,2,2,T,0,172,172,172,,,,,,,None,870.7229492849306,None,869.7404049905881,None,870.2233554814397,None,1,[0.008666273887229181],[0.5172653561685365],870.7229492849306,None,[0 2 1 0 2 0 2 1],space,0,5.746110524304868,0.0029113689797668485,None,870.7396054265159,None,1,876.4848636074548,None,None,876.9844578920307,None,,,,,,,,,,,,,,,,,,,,,,,,,,,,,,,,,,,,,,,,,,,,,,08_YY,8,27,F,2022-11-29_09h22.23.107,dynamic target,2022.1.3,120.08461520709254,
0,8,4,2,T,0,173,173,173,,,,,,,None,878.0169438307039,None,877.0428130800087,None,877.5173519515552,None,1,[0.00869898769997235],[0.5172698462993139],878.0169438307039,None,[3 3 1 3 3 2 3 1],space,0,1.4284465727776023,0.002883466021557979,None,878.0335861811723,None,1,879.4657645137877,None,None,879.9653446865228,None,,,,,,,,,,,,,,,,,,,,,,,,,,,,,,,,,,,,,,,,,,,,,,08_YY,8,27,F,2022-11-29_09h22.23.107,dynamic target,2022.1.3,120.08461520709254,
0,1,2,2,T,0,174,174,174,,,,,,,None,880.9978213242102,None,880.0236071853642,None,880.4982271999957,None,1,[0.00863035283782665],[0.517184213083965],880.9978213242102,None,[0 2 3 3 1 3 3 3],space,0,2.7515830320332952,0.002832791684795666,None,881.0144668819148,None,1,883.7704965668136,None,None,884.2701216408606,None,,,,,,,,,,,,,,,,,,,,,,,,,,,,,,,,,,,,,,,,,,,,,,08_YY,8,27,F,2022-11-29_09h22.23.107,dynamic target,2022.1.3,120.08461520709254,
0,8,3,1,T,0,175,175,175,,,,,,,None,885.3026030894025,None,884.320087018742,None,884.8030137760429,None,1,[0.008656010730192065],[0.5174157755627675],885.3026030894025,None,[3 2 2 3 0 2 3 1],space,0,2.0294881549200454,0.0026676190018406487,None,885.3192409497397,None,1,887.3509178629924,None,None,887.8505082988846,None,,,,,,,,,,,,,,,,,,,,,,,,,,,,,,,,,,,,,,,,,,,,,,08_YY,8,27,F,2022-11-29_09h22.23.107,dynamic target,2022.1.3,120.08461520709254,
0,1,4,2,T,0,176,176,176,,,,,,,None,888.8829951997291,None,887.9087922862113,None,888.3834042827511,None,1,[0.008664990992656385],[0.5172480370911217],888.8829951997291,None,[1 2 3 1 0 0 1 2],space,0,1.6820488606920208,0.0027628739276224223,None,888.8996410781574,None,1,890.5815858437709,None,None,891.0811884671622,None,,,,,,,,,,,,,,,,,,,,,,,,,,,,,,,,,,,,,,,,,,,,,,08_YY,8,27,F,2022-11-29_09h22.23.107,dynamic target,2022.1.3,120.08461520709254,
0,8,1,1,T,0,177,177,177,,,,,,,None,892.1136259765635,None,891.1311288285983,None,891.6140456434664,None,1,[0.008594752511726256],[0.5176252081096209],892.1136259765635,None,[0 0 1 2 1 1 0 1],space,0,1.80975941657357,0.0017051273125616717,None,892.1302821181489,None,1,893.9454679983542,None,None,894.4450831299679,None,,,,,,,,,,,,,,,,,,,,,,,,,,,,,,,,,,,,,,,,,,,,,,08_YY,8,27,F,2022-11-29_09h22.23.107,dynamic target,2022.1.3,120.08461520709254,
0,1,3,2,T,0,178,178,178,,,,,,,None,895.4775543153528,None,894.5034193952497,None,894.9779508901524,None,1,[0.008688083095876209],[0.517167856177366],895.4775543153528,None,[1 2 3 0 3 3 2 0],space,0,1.6790148149136712,0.002544781842516386,None,895.4942220029898,None,1,897.1761597126829,None,None,897.6757511107459,None,,,,,,,,,,,,,,,,,,,,,,,,,,,,,,,,,,,,,,,,,,,,,,08_YY,8,27,F,2022-11-29_09h22.23.107,dynamic target,2022.1.3,120.08461520709254,
0,2,4,2,T,0,179,179,179,,,,,,,None,898.7082511612603,None,897.7257078290891,None,898.2086474153361,None,1,[0.008653444941046473],[0.5173907591179159],898.7082511612603,None,[3 1 2 1 1 1 0 2],space,0,2.912310163875418,0.0024607522445876384,None,898.7248700989016,None,1,901.6391400244197,None,space,902.1470678320907,None,1.6070700845796182,,,,,,,,,,,,,,,,,,,,,,,,,,,,,,,,,,,,,,,,,,,,,08_YY,8,27,F,2022-11-29_09h22.23.107,dynamic target,2022.1.3,120.08461520709254,
0,3,4,2,T,0,180,180,180,,,,,,,None,904.7948840728313,None,903.8123773031566,None,904.2952931558534,None,1,[0.008624579811566946],[0.5174609975979365],904.7948840728313,None,[3 3 3 0 1 2 0 0],space,0,2.169558759025449,0.0026628081473063503,None,904.8115309134305,None,1,906.984732271118,None,None,907.4843345737855,None,,,,,,,,,,,,,,,,,,,,,,,,,,,,,,,,,,,,,,,,,,,,,,08_YY,8,27,F,2022-11-29_09h22.23.107,dynamic target,2022.1.3,120.08461520709254,
0,4,2,2,T,0,181,181,181,,,,,,,None,908.5168192295641,None,907.5342906506808,None,908.01722863331,None,1,[0.008624579812021693],[0.517408078194876],908.5168192295641,None,[1 2 0 3 0 1 1 1],space,0,2.1119195866083373,0.0025935318376468786,None,908.5334734468074,None,1,910.6483980334506,None,None,911.147970829542,None,,,,,,,,,,,,,,,,,,,,,,,,,,,,,,,,,,,,,,,,,,,,,,08_YY,8,27,F,2022-11-29_09h22.23.107,dynamic target,2022.1.3,120.08461520709254,
0,5,4,2,T,0,182,182,182,,,,,,,None,912.1721452146908,None,911.1896220881099,None,911.672553335542,None,1,[0.008668198228861002],[0.5168256440369987],912.1721452146908,None,[1 3 1 1 2 3 2 3],space,0,3.9609299456617464,0.00330297256277845,None,912.1888032806182,None,1,916.1522000520213,None,None,916.651786318506,None,,,,,,,,,,,,,,,,,,,,,,,,,,,,,,,,,,,,,,,,,,,,,,08_YY,8,27,F,2022-11-29_09h22.23.107,dynamic target,2022.1.3,120.08461520709254,
0,6,1,2,T,0,183,183,183,,,,,,,None,917.675941780959,None,916.6850589923056,None,917.1763264889837,None,1,[0.008518741005445918],[0.5176098133738378],917.675941780959,None,[1 3 0 1 3 0 2 1],space,0,2.935691559786619,0.0023529890959252953,None,917.6925937531369,None,1,920.631847409948,None,None,921.1314262997886,None,,,,,,,,,,,,,,,,,,,,,,,,,,,,,,,,,,,,,,,,,,,,,,08_YY,8,27,F,2022-11-29_09h22.23.107,dynamic target,2022.1.3,120.08461520709254,
0,7,2,2,T,0,184,184,184,,,,,,,None,922.1722132081054,None,921.1897452459934,None,921.6726572500061,None,1,[0.008640936718620651],[0.5177134071150249],922.1722132081054,None,[2 0 2 1 0 1 3 3],space,0,1.8791348297052082,0.0021252753008411673,None,922.1888642181125,None,1,924.0706810791326,None,None,924.5702660627227,None,,,,,,,,,,,,,,,,,,,,,,,,,,,,,,,,,,,,,,,,,,,,,,08_YY,8,27,F,2022-11-29_09h22.23.107,dynamic target,2022.1.3,120.08461520709254,
0,8,4,2,T,0,185,185,185,,,,,,,None,925.6027596987633,None,924.6285933477425,None,925.1031678196146,None,1,[0.008707647238679783],[0.5174972393710959],925.6027596987633,None,[1 2 1 1 2 2 3 0],space,0,1.7453411082558432,0.0025447818420616386,None,925.6193834472597,None,1,927.3679765127654,None,None,927.8675332726735,None,,,,,,,,,,,,,,,,,,,,,,,,,,,,,,,,,,,,,,,,,,,,,,08_YY,8,27,F,2022-11-29_09h22.23.107,dynamic target,2022.1.3,120.08461520709254,
0,7,2,1,T,0,186,186,186,,,,,,,None,928.9000134383209,None,927.9259198915697,None,928.4004520279195,None,1,[0.008706043620350101],[0.5175379712750328],928.9000134383209,None,[1 3 0 0 0 3 3 1],space,0,1.664012003770722,0.0025704397339723073,None,928.9167042180611,None,1,930.5819838618272,None,None,931.0815685246936,None,,,,,,,,,,,,,,,,,,,,,,,,,,,,,,,,,,,,,,,,,,,,,,08_YY,8,27,F,2022-11-29_09h22.23.107,dynamic target,2022.1.3,120.08461520709254,
0,8,1,2,T,0,187,187,187,,,,,,,None,932.114054142643,None,931.1398849051088,None,931.6144635463888,None,1,[0.008658576519337657],[0.517118464734267],932.114054142643,None,[0 1 3 2 0 1 2 2],space,0,1.8422522508051316,0.0029123311505827587,None,932.1306945687693,None,1,933.9708552000047,None,None,934.4704449944498,None,,,,,,,,,,,,,,,,,,,,,,,,,,,,,,,,,,,,,,,,,,,,,,08_YY,8,27,F,2022-11-29_09h22.23.107,dynamic target,2022.1.3,120.08461520709254,
0,1,3,2,T,0,188,188,188,,,,,,,None,935.5029274051626,None,934.5287681100622,None,935.003318848384,None,1,[0.008714061711998511],[0.5172477163678195],935.5029274051626,None,[2 0 3 0 2 1 0 3],space,0,1.7328880501715958,0.002657035121046647,None,935.5195796980643,None,1,937.251457608832,None,None,937.7510425924221,None,,,,,,,,,,,,,,,,,,,,,,,,,,,,,,,,,,,,,,,,,,,,,,08_YY,8,27,F,2022-11-29_09h22.23.107,dynamic target,2022.1.3,120.08461520709254,
0,2,3,2,T,0,189,189,189,,,,,,,None,938.7835567547768,None,937.8093913659268,None,938.2839975894408,None,1,[0.008622014022421354],[0.5172384153811436],938.7835567547768,None,[2 3 2 2 2 2 0 0],space,0,1.6844655134339064,0.0028818624036830442,None,938.800210330573,None,1,940.4821313626362,None,None,940.9817458528024,None,,,,,,,,,,,,,,,,,,,,,,,,,,,,,,,,,,,,,,,,,,,,,,08_YY,8,27,F,2022-11-29_09h22.23.107,dynamic target,2022.1.3,120.08461520709254,
0,3,4,2,T,0,190,190,190,,,,,,,None,942.014235319436,None,941.0401116246608,None,941.514647288971,None,1,[0.00866659461053132],[0.517523859434732],942.014235319436,None,[3 0 2 1 1 3 3 2],space,0,2.757341304539068,0.0024328492863787687,None,942.0308821600352,None,1,944.7869512939433,None,None,945.2865503893746,None,,,,,,,,,,,,,,,,,,,,,,,,,,,,,,,,,,,,,,,,,,,,,,08_YY,8,27,F,2022-11-29_09h22.23.107,dynamic target,2022.1.3,120.08461520709254,
0,6,4,0,T,0,191,191,191,,,,,,,None,946.3190190089704,None,945.3364984481786,None,945.8194274505449,None,1,[0.008608543629179621],[0.5176883906697185],946.3190190089704,None,[3 0 3 1 0 0 3 0],space,0,3.316731467751879,0.002261903578073543,None,946.3356777163449,None,1,949.6579058862089,None,None,950.1575360918347,None,,,,,,,,,,,,,,,,,,,,,,,,,,,,,,,,,,,,,,,,,,,,,,08_YY,8,27,F,2022-11-29_09h22.23.107,dynamic target,2022.1.3,120.08461520709254,
0,7,1,2,T,0,192,192,192,,,,,,,None,951.1900040699829,None,950.2158835824448,None,950.6904121908342,None,1,[0.008656972901462723],[0.5175543281820865],951.1900040699829,None,[0 2 3 2 2 1 2 1],space,0,2.8612846339522093,0.002562421642778645,None,951.2066643809758,None,1,954.0709341300962,None,None,954.5705550347358,None,,,,,,,,,,,,,,,,,,,,,,,,,,,,,,,,,,,,,,,,,,,,,,08_YY,8,27,F,2022-11-29_09h22.23.107,dynamic target,2022.1.3,120.08461520709254,
0,8,2,2,T,0,193,193,193,,,,,,,None,955.6030335967648,None,954.6288954694255,None,955.1034503771548,None,1,[0.008575509092679567],[0.5171880617676834],955.6030335967648,None,[1 1 0 1 1 0 2 1],space,0,1.3922147421737918,0.0026932768942060648,None,955.6196881347319,None,1,957.0102002951298,None,None,957.5098337079918,None,,,,,,,,,,,,,,,,,,,,,,,,,,,,,,,,,,,,,,,,,,,,,,08_YY,8,27,F,2022-11-29_09h22.23.107,dynamic target,2022.1.3,120.08461520709254,
0,1,2,2,T,0,194,194,194,,,,,,,None,958.5422821219972,None,957.5681433532104,None,958.0426940915327,None,1,[0.008657935071823886],[0.5171559894019992],958.5422821219972,None,[3 0 0 1 1 1 1 3],space,0,1.6376671212858582,0.0029803245656694344,None,958.558936980688,None,1,960.1992521365805,None,None,960.6988457797094,None,,,,,,,,,,,,,,,,,,,,,,,,,,,,,,,,,,,,,,,,,,,,,,08_YY,8,27,F,2022-11-29_09h22.23.107,dynamic target,2022.1.3,120.08461520709254,
0,2,2,2,T,0,195,195,195,,,,,,,None,961.7313230588438,None,960.7571451617714,None,961.2317501023908,None,1,[0.008437277197572257],[0.5167797805547707],961.7313230588438,None,[1 2 0 3 0 0 1 3],space,0,2.1923250069664846,0.0031503081027040025,None,961.7480109520711,None,1,963.9378392654912,None,None,964.4374162309902,None,,,,,,,,,,,,,,,,,,,,,,,,,,,,,,,,,,,,,,,,,,,,,,08_YY,8,27,F,2022-11-29_09h22.23.107,dynamic target,2022.1.3,120.08461520709254,
0,3,1,2,T,0,196,196,196,,,,,,,None,965.4699291104503,None,964.4957085571314,None,964.9703250438029,None,1,[0.008649275533571199],[0.517607889032206],965.4699291104503,None,[2 3 0 3 2 1 1 1],space,0,2.0696713009563155,0.0024459989563183626,None,965.4865762717736,None,1,967.5598481565926,None,None,968.0594443655106,None,,,,,,,,,,,,,,,,,,,,,,,,,,,,,,,,,,,,,,,,,,,,,,08_YY,8,27,F,2022-11-29_09h22.23.107,dynamic target,2022.1.3,120.08461520709254,
0,4,2,2,T,0,197,197,197,,,,,,,None,969.0919258140525,None,968.1094113470103,None,968.5923390664825,None,1,[0.008638691652777197],[0.5175607426549504],969.0919258140525,None,[0 2 1 3 0 1 2 3],space,0,2.84681101684032,0.0024023805385695596,None,969.1085848421508,None,1,971.9562311634986,None,None,972.455830900377,None,,,,,,,,,,,,,,,,,,,,,,,,,,,,,,,,,,,,,,,,,,,,,,08_YY,8,27,F,2022-11-29_09h22.23.107,dynamic target,2022.1.3,120.08461520709254,
0,5,1,2,T,0,198,198,198,,,,,,,None,973.4882975956307,None,972.5141129633612,None,972.9887259220723,None,1,[0.008712137369911943],[0.5170966555260748],973.4882975956307,None,[0 2 0 2 3 2 0 1],space,0,2.9308813464060677,0.0028693541808024747,None,973.5049591895186,None,1,976.4358951990553,None,None,976.9354708816596,None,,,,,,,,,,,,,,,,,,,,,,,,,,,,,,,,,,,,,,,,,,,,,,08_YY,8,27,F,2022-11-29_09h22.23.107,dynamic target,2022.1.3,120.08461520709254,
0,4,1,1,T,0,199,199,199,,,,,,,None,977.9679385390846,None,976.9854266378316,None,977.4683604510528,None,1,[0.00867012257094757],[0.5170523956612669],977.9679385390846,None,[0 1 2 3 2 2 1 0],space,0,2.2918327282279733,0.0030021337743164622,None,977.9846065474449,None,1,980.2743851807709,None,None,980.7739762581106,None,,,,,,,,,,,,,,,,,,,,,,,,,,,,,,,,,,,,,,,,,,,,,,08_YY,8,27,F,2022-11-29_09h22.23.107,dynamic target,2022.1.3,120.08461520709254,
0,5,4,2,T,0,200,200,200,,,,,,,None,981.8064660454675,None,980.8239329764533,None,981.30686550678,None,1,[0.008752548550546635],[0.5174728643733033],981.8064660454675,None,[3 1 0 0 1 2 2 1],space,0,3.0129202123400773,0.002533877237510751,None,981.8231112824487,None,1,984.8372891923505,None,None,985.3368834769263,None,,,,,,,,,,,,,,,,,,,,,,,,,,,,,,,,,,,,,,,,,,,,,,08_YY,8,27,F,2022-11-29_09h22.23.107,dynamic target,2022.1.3,120.08461520709254,
0,1,4,0,T,0,201,201,201,,,,,,,None,986.3693533794171,None,985.3868559107286,None,985.869749633493,None,1,[0.008746454800984793],[0.5173057673491712],986.3693533794171,None,[0 0 3 2 1 3 2 2],space,0,1.489345259702759,0.0027012949858544744,None,986.3859889946884,None,1,987.8764562858469,None,None,988.376012404308,None,,,,,,,,,,,,,,,,,,,,,,,,,,,,,,,,,,,,,,,,,,,,,,08_YY,8,27,F,2022-11-29_09h22.23.107,dynamic target,2022.1.3,120.08461520709254,
0,2,2,2,T,0,202,202,202,,,,,,,None,989.4085137377165,None,988.434376572548,None,988.9089417434343,None,1,[0.008707967961981922],[0.5173711949742028],989.4085137377165,None,[3 0 1 3 0 2 2 3],space,0,1.8582011967307608,0.0026349051890974806,None,989.4251900848922,None,1,991.2819795962023,None,None,991.781576125844,None,,,,,,,,,,,,,,,,,,,,,,,,,,,,,,,,,,,,,,,,,,,,,,08_YY,8,27,F,2022-11-29_09h22.23.107,dynamic target,2022.1.3,120.08461520709254,
0,1,2,1,T,0,203,203,203,,,,,,,None,992.8140569329389,None,991.8315540119484,None,992.3144393958978,None,1,[0.009413880727151991],[0.5176669021848284],992.8140569329389,None,[0 0 3 2 2 2 1 1],space,0,1.3962282779946236,0.002342084491829155,None,992.8307156403134,None,1,994.2295646914044,None,None,994.7291480713762,None,,,,,,,,,,,,,,,,,,,,,,,,,,,,,,,,,,,,,,,,,,,,,,08_YY,8,27,F,2022-11-29_09h22.23.107,dynamic target,2022.1.3,120.08461520709254,
0,2,4,2,T,0,204,204,204,,,,,,,None,995.7616301613657,None,994.7791022239298,None,995.2620408480061,None,1,[0.008660821584726364],[0.5173051259016574],995.7616301613657,None,[2 2 0 1 2 3 3 3],space,0,1.552967852631582,0.0027394611006457126,None,995.7782821335436,None,1,997.3353281275608,None,None,997.8349236950313,None,,,,,,,,,,,,,,,,,,,,,,,,,,,,,,,,,,,,,,,,,,,,,,08_YY,8,27,F,2022-11-29_09h22.23.107,dynamic target,2022.1.3,120.08461520709254,
0,3,2,2,T,0,205,205,205,,,,,,,None,998.8674096337045,None,997.8932237185404,None,998.3678257726474,None,1,[0.008690648884567054],[0.5173147476111808],998.8674096337045,None,[1 1 0 1 2 3 3 3],space,0,2.7197868095811373,0.0029318952938410803,None,998.8840673789082,None,1,1001.6067889500437,None,None,1002.1063979879078,None,,,,,,,,,,,,,,,,,,,,,,,,,,,,,,,,,,,,,,,,,,,,,,08_YY,8,27,F,2022-11-29_09h22.23.107,dynamic target,2022.1.3,120.08461520709254,
0,4,3,2,T,0,206,206,206,,,,,,,None,1003.1388874545414,None,1002.1563668937497,None,1002.6393080836151,None,1,[0.008057861113229592],[0.5169051835036953],1003.1388874545414,None,[3 2 0 1 1 0 2 1],space,0,2.0159539373942152,0.0025832686806097627,None,1003.1555387852718,None,1,1005.1705582740447,None,None,1005.6701095816512,None,,,,,,,,,,,,,,,,,,,,,,,,,,,,,,,,,,,,,,,,,,,,,,08_YY,8,27,F,2022-11-29_09h22.23.107,dynamic target,2022.1.3,120.08461520709254,
0,5,4,2,T,0,207,207,207,,,,,,,None,1006.7026099528889,None,1005.7200775253218,None,1006.2030280161734,None,1,[0.008656331453948951],[0.5171412361141847],1006.7026099528889,None,[2 1 3 3 0 2 0 1],space,0,2.5964919769842254,0.0029286880576364638,None,1006.71927539546,None,1,1009.317130267365,None,None,1009.8167210239809,None,,,,,,,,,,,,,,,,,,,,,,,,,,,,,,,,,,,,,,,,,,,,,,08_YY,8,27,F,2022-11-29_09h22.23.107,dynamic target,2022.1.3,120.08461520709254,
0,5,1,0,T,0,208,208,208,,,,,,,None,1010.8492223573894,None,1009.8666803081128,None,1010.349635609819,None,1,[0.008715986053630331],[0.5171925518989156],1010.8492223573894,None,[2 2 1 2 1 1 0 3],space,0,2.337294344181146,0.00287673082539186,None,1010.8658560483191,None,1,1013.2055970126517,None,None,1013.7051832791363,None,,,,,,,,,,,,,,,,,,,,,,,,,,,,,,,,,,,,,,,,,,,,,,08_YY,8,27,F,2022-11-29_09h22.23.107,dynamic target,2022.1.3,120.08461520709254,
0,4,3,1,T,0,209,209,209,,,,,,,None,1014.7376717835987,None,1013.763474322383,None,1014.2380997893165,None,1,[0.008728494276056153],[0.5171627245986201],1014.7376717835987,None,[1 0 2 3 0 2 3 2],space,0,2.4964813610306464,0.0027109166953778185,None,1014.754317662027,None,1,1017.2522651909958,None,None,1017.751847288073,None,,,,,,,,,,,,,,,,,,,,,,,,,,,,,,,,,,,,,,,,,,,,,,08_YY,8,27,F,2022-11-29_09h22.23.107,dynamic target,2022.1.3,120.08461520709254,
0,5,2,2,T,0,210,210,210,,,,,,,None,1018.7843236050362,None,1017.8101521224366,None,1018.2847368574662,None,1,[0.008606619287093054],[0.5169340486327201],1018.7843236050362,None,[1 0 0 0 1 0 2 2],space,0,2.2268069693075176,0.0030242637062656286,None,1018.800959861755,None,1,1021.032488023377,None,None,1021.5320768556509,None,,,,,,,,,,,,,,,,,,,,,,,,,,,,,,,,,,,,,,,,,,,,,,08_YY,8,27,F,2022-11-29_09h22.23.107,dynamic target,2022.1.3,120.08461520709254,
0,6,1,2,T,0,211,211,211,,,,,,,None,1022.5645727367573,None,1021.5903448067943,None,1022.0649619349128,None,1,[0.008726890657726472],[0.5172127574887782],1022.5645727367573,None,[2 0 2 3 2 1 3 1],space,0,1.6137555691723264,0.0028895597711198207,None,1022.581206427687,None,1,1024.196532079261,None,None,1024.6961411171253,None,,,,,,,,,,,,,,,,,,,,,,,,,,,,,,,,,,,,,,,,,,,,,,08_YY,8,27,F,2022-11-29_09h22.23.107,dynamic target,2022.1.3,120.08461520709254,
0,8,2,0,T,0,212,212,212,,,,,,,None,1025.7286135854051,None,1024.746094948955,None,1025.2290258756639,None,1,[0.008651841322262044],[0.5173837031970834],1025.7286135854051,None,[1 3 1 1 2 3 1 3],space,0,1.809844087618103,0.0025871173647828982,None,1025.7452674819247,None,1,1027.560431232198,None,None,1028.0600361006548,None,,,,,,,,,,,,,,,,,,,,,,,,,,,,,,,,,,,,,,,,,,,,,,08_YY,8,27,F,2022-11-29_09h22.23.107,dynamic target,2022.1.3,120.08461520709254,
0,7,2,1,T,0,213,213,213,,,,,,,None,1029.092516266302,None,1028.1099719719596,None,1028.5929269529424,None,1,[0.008661783755542274],[0.5172765814963896],1029.092516266302,None,[3 2 0 3 2 1 1 2],space,0,2.3340245665165185,0.0027574216260290996,None,1029.109147391442,None,1,1031.4406014979718,None,None,1031.9401682003138,None,,,,,,,,,,,,,,,,,,,,,,,,,,,,,,,,,,,,,,,,,,,,,,08_YY,8,27,F,2022-11-29_09h22.23.107,dynamic target,2022.1.3,120.08461520709254,
0,6,3,1,T,0,214,214,214,,,,,,,None,1032.9726441965536,None,1031.9901842525328,None,1032.4730561660886,None,1,[0.008641898889436561],[0.5177361784944878],1032.9726441965536,None,[1 1 0 1 0 2 3 0],space,0,2.100844036623357,0.0022314348311738286,None,1032.989310601296,None,1,1035.095896372904,None,None,1035.5954858466255,None,,,,,,,,,,,,,,,,,,,,,,,,,,,,,,,,,,,,,,,,,,,,,,08_YY,8,27,F,2022-11-29_09h22.23.107,dynamic target,2022.1.3,120.08461520709254,
0,7,2,2,T,0,215,215,215,,,,,,,None,1036.6279951981255,None,1035.6538330165117,None,1036.1283799061498,None,1,[0.008746454800984793],[0.5172611867610613],1036.6279951981255,None,[2 2 1 1 1 1 1 0],space,0,1.8220290207266316,0.002839847605173418,None,1036.6446272854364,None,1,1038.4681183046932,None,None,1038.967718362295,None,,,,,,,,,,,,,,,,,,,,,,,,,,,,,,,,,,,,,,,,,,,,,,08_YY,8,27,F,2022-11-29_09h22.23.107,dynamic target,2022.1.3,120.08461520709254,
0,8,2,2,T,0,216,216,216,,,,,,,None,1040.0002084703756,None,1039.0259891999517,None,1039.5006037622807,None,1,[0.008616561720373284],[0.5171925518984608],1040.0002084703756,None,[3 2 1 3 2 3 0 0],space,0,1.442129926802636,0.0024620351391604345,None,1040.016839595516,None,1,1041.4573012579744,None,None,1041.9569135030754,None,,,,,,,,,,,,,,,,,,,,,,,,,,,,,,,,,,,,,,,,,,,,,,08_YY,8,27,F,2022-11-29_09h22.23.107,dynamic target,2022.1.3,120.08461520709254,
0,1,4,2,T,0,217,217,217,,,,,,,None,1042.989361596357,None,1042.015243674608,None,1042.4897825461544,None,1,[0.008729135723115178],[0.5173144268874239],1042.989361596357,None,[3 3 3 1 3 2 3 2],space,0,2.420581145857568,0.0026018706525974267,None,1043.006015492877,None,1,1045.429052239148,None,None,1045.9286705779984,None,,,,,,,,,,,,,,,,,,,,,,,,,,,,,,,,,,,,,,,,,,,,,,08_YY,8,27,F,2022-11-29_09h22.23.107,dynamic target,2022.1.3,120.08461520709254,
0,2,1,2,T,0,218,218,218,,,,,,,None,1046.9611202748983,None,1045.9869491130225,None,1046.461542186867,None,1,[0.008631635732399445],[0.5171819680181216],1046.9611202748983,None,[0 3 0 0 1 0 0 3],space,0,2.4337426824956765,0.0028780137195099087,None,1046.977777378655,None,1,1049.4090833429282,None,None,1049.9086971916474,None,,,,,,,,,,,,,,,,,,,,,,,,,,,,,,,,,,,,,,,,,,,,,,08_YY,8,27,F,2022-11-29_09h22.23.107,dynamic target,2022.1.3,120.08461520709254,
0,4,1,0,T,0,219,219,219,,,,,,,None,1050.9411635661777,None,1049.9670421164683,1050.9661633336527,1050.4415918926193,None,2,"[0.008573905474349885, 0.8758430622183369]","[0.37485379010377073, 1.3832468074365352]",1050.9411635661777,None,[1 1 2 3 1 1 1 1],space,0,2.3863304252720354,0.00252457625219904,None,1051.8237851228482,None,1,1054.2135034921994,None,None,1054.7130759675672,None,,,,,,,,,,,,,,,,,,,,,,,,,,,,,,,,,,,,,,,,,,,,,,08_YY,8,27,F,2022-11-29_09h22.23.107,dynamic target,2022.1.3,120.08461520709254,
