tar_letter,tar_pos,tar_ori,tar_pos_type,block,trials.thisRepN,trials.thisTrialN,trials.thisN,trials.thisIndex,instructions_key.keys,instructions_key.rt,instructions_key.started,instructions_key.stopped,instruction_text.started,instruction_text.stopped,fix_key.keys,fix_key.started,fix_key.stopped,fixcross.started,fixcross.stopped,roi.started,roi.stopped,roi.numLooks,roi.timesOn,roi.timesOff,RedFixCross.started,RedFixCross.stopped,distori,search_resp.keys,search_resp.corr,search_resp.rt,search_resp.started,search_resp.stopped,fixcross_shape.started,fixcross_shape.stopped,correct,feedback_text.started,feedback_text.stopped,break_key.keys,break_key.started,break_key.stopped,break_key.rt,text_q1.started,text_q1.stopped,key_resp1.keys,key_resp1.rt,key_resp1.started,key_resp1.stopped,text_q2.started,text_q2.stopped,key_resp_2.keys,key_resp_2.rt,key_resp_2.started,key_resp_2.stopped,image.started,image.stopped,text_q1_2.started,text_q1_2.stopped,slider.response,slider.rt,slider.started,slider.stopped,mouse.x,mouse.y,mouse.leftButton,mouse.midButton,mouse.rightButton,mouse.time,mouse.started,mouse.stopped,key_resp_3.keys,key_resp_3.rt,key_resp_3.started,key_resp_3.stopped,text_q4.started,text_q4.stopped,key_resp1_3.keys,key_resp1_3.rt,key_resp1_3.started,key_resp1_3.stopped,finish_text.started,finish_text.stopped,key_resp.keys,key_resp.rt,key_resp.started,key_resp.stopped,participant,group,age,gender,date,expName,psychopyVersion,frameRate,
,,,,,,,,,space,6.215902126612491,47.2959141980964,None,,,,,,,,,,,,,,,,,,,,,,,,,,,,,,,,,,,,,,,,,,,,,,,,,,,,,,,,,,,,,,,,,,,,,,,,,,09_JXL,9,27,F,2022-11-29_14h15.30.527,dynamic target,2022.1.3,120.103923517558,
1,7,4,0,mix,0,0,0,0,,,,,47.2959141980964,None,None,199.88115742258196,None,198.92464559762357,None,199.3815746684004,None,1,[0.009028032120113494],[0.5170317113243073],199.88115742258196,None,[0 3 2 3 1 2 0 3],space,0,2.8277028389775296,0.006655407551079406,None,199.90611488018567,None,1,202.7369953041407,None,None,203.23657437013853,None,,,,,,,,,,,,,,,,,,,,,,,,,,,,,,,,,,,,,,,,,,,,,,09_JXL,9,27,F,2022-11-29_14h15.30.527,dynamic target,2022.1.3,120.103923517558,
1,8,4,2,mix,0,1,1,1,,,,,,,None,204.2690111434459,None,203.27822951791313,None,203.7694593379356,None,1,[0.008641253904897894],[0.5088551685557832],204.2690111434459,None,[1 0 0 3 0 3 2 0],space,0,2.499891304519224,0.002206656305133947,None,204.2773555787462,None,1,206.7751978309634,None,None,207.27475701284047,None,,,,,,,,,,,,,,,,,,,,,,,,,,,,,,,,,,,,,,,,,,,,,,09_JXL,9,27,F,2022-11-29_14h15.30.527,dynamic target,2022.1.3,120.103923517558,
1,1,1,2,mix,0,2,2,2,,,,,,,None,208.29887532848898,None,207.31644294893067,None,207.79931983479491,None,1,[0.009571317605150398],[0.5176612682344057],208.29887532848898,None,[0 0 0 3 1 2 1 1],space,0,2.973257807986556,0.002406459645499126,None,208.31553148650528,None,1,211.28797562335149,None,None,211.78754314373063,None,,,,,,,,,,,,,,,,,,,,,,,,,,,,,,,,,,,,,,,,,,,,,,09_JXL,9,27,F,2022-11-29_14h15.30.527,dynamic target,2022.1.3,120.103923517558,
1,2,1,2,mix,0,3,3,3,,,,,,,None,212.811676532825,None,211.82918289734698,None,212.3120944200673,None,1,[0.008701547690179723],[0.5178511295143835],212.811676532825,None,[2 0 2 3 3 3 2 3],space,0,2.509640617074183,0.0024064596445896314,None,212.82832755945492,None,1,215.34281763118543,None,None,215.84238675512378,None,,,,,,,,,,,,,,,,,,,,,,,,,,,,,,,,,,,,,,,,,,,,,,09_JXL,9,27,F,2022-11-29_14h15.30.527,dynamic target,2022.1.3,120.103923517558,
0,3,1,2,mix,0,4,4,4,,,,,,,None,216.8748320272889,None,215.88401977379544,None,216.37526338441876,None,1,[0.008634839672595263],[0.5176272728031108],216.8748320272889,None,[2 2 3 3 2 3 2 3],space,0,1.821439982449192,0.0024847132808645256,None,216.89148561961156,None,1,218.71491495048576,None,None,219.2144924129253,None,,,,,,,,,,,,,,,,,,,,,,,,,,,,,,,,,,,,,,,,,,,,,,09_JXL,9,27,F,2022-11-29_14h15.30.527,dynamic target,2022.1.3,120.103923517558,
0,4,3,2,mix,0,5,5,5,,,,,,,None,220.24692613947263,None,219.26449215635603,None,219.7473558930442,None,1,[0.00863034971007437],[0.5176433083834127],220.24692613947263,None,[1 1 2 1 0 0 2 0],space,0,1.8246942432642754,0.002580285344265576,None,220.26358197677655,None,1,222.08701002480393,None,None,222.5865788280299,None,,,,,,,,,,,,,,,,,,,,,,,,,,,,,,,,,,,,,,,,,,,,,,09_JXL,9,27,F,2022-11-29_14h15.30.527,dynamic target,2022.1.3,120.103923517558,
0,5,2,2,mix,0,6,6,6,,,,,,,None,223.61903949435327,None,222.62821569524203,None,223.11946572009674,None,1,[0.008693209188095352],[0.517917196108101],223.61903949435327,None,[1 0 2 3 2 3 0 1],space,0,2.7886318250857585,0.0022897206154084415,None,223.63567769251858,None,0,226.43327562662216,None,None,226.93282486643974,None,,,,,,,,,,,,,,,,,,,,,,,,,,,,,,,,,,,,,,,,,,,,,,09_JXL,9,27,F,2022-11-29_14h15.30.527,dynamic target,2022.1.3,120.103923517558,
0,3,1,0,mix,0,7,7,7,,,,,,,None,227.95696082122686,None,226.97447039286544,227.97361441355042,227.45738704697123,None,1,[0.07477744217067084],[0.5837974565001787],227.95696082122686,None,[0 2 0 1 0 3 3 1],space,0,1.471679906812824,0.002537630697588611,None,228.04021948220452,None,1,229.52226123500895,None,None,230.021869485765,None,,,,,,,,,,,,,,,,,,,,,,,,,,,,,,,,,,,,,,,,,,,,,,09_JXL,9,27,F,2022-11-29_14h15.30.527,dynamic target,2022.1.3,120.103923517558,
0,4,1,2,mix,0,8,8,8,,,,,,,None,231.04596150306043,None,230.06347556466062,None,230.54639350161324,None,1,[0.00865312023597653],[0.5171099649596727],231.04596150306043,None,[3 3 1 1 0 1 0 1],space,0,2.0975627457264636,0.0030684084304084536,None,231.06262375459664,None,0,233.16080929653162,None,None,233.66037713762316,None,,,,,,,,,,,,,,,,,,,,,,,,,,,,,,,,,,,,,,,,,,,,,,09_JXL,9,27,F,2022-11-29_14h15.30.527,dynamic target,2022.1.3,120.103923517558,
1,5,2,2,mix,0,9,9,9,,,,,,,None,234.6844972171858,None,233.69368897258755,None,234.1766014574423,None,1,[0.008619124802862643],[0.5164464126155508],234.6844972171858,None,[3 1 2 3 0 2 3 1],space,0,1.6204747046140255,0.0034667322634049924,None,234.69282273050067,None,0,236.3164246683682,None,None,236.8159912266129,None,,,,,,,,,,,,,,,,,,,,,,,,,,,,,,,,,,,,,,,,,,,,,,09_JXL,9,27,F,2022-11-29_14h15.30.527,dynamic target,2022.1.3,120.103923517558,
1,6,4,2,mix,0,10,10,10,,,,,,,None,237.84844419585716,None,236.86601085416441,None,237.34887010088914,None,1,[0.009592484571840032],[0.5175281729125345],237.84844419585716,None,[3 3 0 1 1 2 0 0],space,0,2.2711219327347862,0.002606904407912225,None,237.86509233608285,None,1,240.13813049499277,None,None,240.6377175787812,None,,,,,,,,,,,,,,,,,,,,,,,,,,,,,,,,,,,,,,,,,,,,,,09_JXL,9,27,F,2022-11-29_14h15.30.527,dynamic target,2022.1.3,120.103923517558,
1,7,2,2,mix,0,11,11,11,,,,,,,None,241.66182017955998,None,240.6793971006391,None,241.16225185740132,None,1,[0.008681984280883626],[0.5176696067364901],241.66182017955998,None,[0 0 3 3 1 3 2 3],space,0,2.776753628793813,0.002229426830126613,None,241.67850905016167,None,1,244.45942677287803,None,None,244.95898178550405,None,,,,,,,,,,,,,,,,,,,,,,,,,,,,,,,,,,,,,,,,,,,,,,09_JXL,9,27,F,2022-11-29_14h15.30.527,dynamic target,2022.1.3,120.103923517558,
1,8,1,2,mix,0,12,12,12,,,,,,,None,245.991428340516,None,245.00061929413914,None,245.49185456626037,None,1,[0.008629066863250046],[0.5176468362114974],245.991428340516,None,[1 0 3 3 2 2 3 0],space,0,2.4627208276915553,0.0024661120060045505,None,246.0080812914157,None,1,248.47262309393045,None,None,248.97219285929177,None,,,,,,,,,,,,,,,,,,,,,,,,,,,,,,,,,,,,,,,,,,,,,,09_JXL,9,27,F,2022-11-29_14h15.30.527,dynamic target,2022.1.3,120.103923517558,
1,1,2,2,mix,0,13,13,13,,,,,,,None,250.00463604683145,None,249.02220831759223,None,249.50508905199604,None,1,[0.008733298140214174],[0.5090055823065995],250.00463604683145,None,[3 2 1 0 0 3 2 2],space,0,3.9299001625740857,0.0026133186402148567,None,250.01296637082123,None,1,253.94292199074698,None,None,254.44248149333643,None,,,,,,,,,,,,,,,,,,,,,,,,,,,,,,,,,,,,,,,,,,,,,,09_JXL,9,27,F,2022-11-29_14h15.30.527,dynamic target,2022.1.3,120.103923517558,
0,2,2,2,mix,0,14,14,14,,,,,,,None,255.46660109183085,None,254.48412028481744,None,254.96701192341698,None,1,[0.00868871922557446],[0.5173123339918675],255.46660109183085,None,[1 1 1 1 2 1 0 2],space,0,2.347138925319996,0.0024616220443931525,None,255.48325692913477,None,1,257.83123641385373,None,None,258.3308007271172,None,,,,,,,,,,,,,,,,,,,,,,,,,,,,,,,,,,,,,,,,,,,,,,09_JXL,9,27,F,2022-11-29_14h15.30.527,dynamic target,2022.1.3,120.103923517558,
0,3,4,2,mix,0,15,15,15,,,,,,,None,259.3632500081786,None,258.38082259964995,None,258.8636763942777,None,1,[0.00863868821215874],[0.5089584376983112],259.3632500081786,None,[1 2 2 2 0 3 0 2],space,0,1.8353556596675844,0.0028243468868822674,None,259.3715639758748,None,1,261.21165812397794,None,None,261.7112230786653,None,,,,,,,,,,,,,,,,,,,,,,,,,,,,,,,,,,,,,,,,,,,,,,09_JXL,9,27,F,2022-11-29_14h15.30.527,dynamic target,2022.1.3,120.103923517558,
1,4,4,2,mix,0,16,16,16,,,,,,,None,262.74364942884495,None,261.7528471174119,None,262.2441051600572,None,1,[0.007916124930488877],[0.5168024025142586],262.74364942884495,None,[0 0 3 0 0 1 1 2],space,0,2.0133448362921627,0.0025209536943293642,None,262.76032194315303,None,1,264.77525684190186,None,None,265.2748205137415,None,,,,,,,,,,,,,,,,,,,,,,,,,,,,,,,,,,,,,,,,,,,,,,09_JXL,9,27,F,2022-11-29_14h15.30.527,dynamic target,2022.1.3,120.103923517558,
1,5,1,2,mix,0,17,17,17,,,,,,,None,266.30726738946487,None,265.3164551359723,None,265.807700991576,None,1,[0.00859956139447604],[0.5170839873171644],266.30726738946487,None,[1 2 0 3 2 0 3 1],space,0,1.6989050521433455,0.0029250503357616253,None,266.3239200196531,None,1,268.02245558625145,None,None,268.5220093160316,None,,,,,,,,,,,,,,,,,,,,,,,,,,,,,,,,,,,,,,,,,,,,,,09_JXL,9,27,F,2022-11-29_14h15.30.527,dynamic target,2022.1.3,120.103923517558,
1,6,3,2,mix,0,18,18,18,,,,,,,None,269.55446918057544,None,268.56365740815,None,269.0465654030413,None,1,[0.008736825968298945],[0.5164669381601925],269.55446918057544,None,[2 3 3 1 2 2 2 3],space,0,1.4522021279599358,0.003383667953130498,None,269.5627991838528,None,1,271.01154946688075,None,None,271.51111827010766,None,,,,,,,,,,,,,,,,,,,,,,,,,,,,,,,,,,,,,,,,,,,,,,09_JXL,9,27,F,2022-11-29_14h15.30.527,dynamic target,2022.1.3,120.103923517558,
1,7,4,2,mix,0,19,19,19,,,,,,,None,272.54356193871445,None,271.5527525716261,None,272.0439839952078,None,1,[0.008641895328764804],[0.5179608128883046],272.54356193871445,None,[2 1 2 1 1 2 2 1],space,0,1.8449099795561779,0.002237123909253569,None,272.56021456890267,None,1,274.4086238071932,None,None,274.90819293113157,None,,,,,,,,,,,,,,,,,,,,,,,,,,,,,,,,,,,,,,,,,,,,,,09_JXL,9,27,F,2022-11-29_14h15.30.527,dynamic target,2022.1.3,120.103923517558,
0,8,2,2,mix,0,20,20,20,,,,,,,None,275.9406362790269,None,274.94981055564585,None,275.4410663533099,None,1,[0.008650554542327882],[0.5175717896927381],275.9406362790269,None,[0 3 2 0 3 0 3 2],space,0,2.2083968332672157,0.002579323208919959,None,275.9572908334849,None,1,278.16372264089387,None,None,278.66329657550534,None,,,,,,,,,,,,,,,,,,,,,,,,,,,,,,,,,,,,,,,,,,,,,,09_JXL,9,27,F,2022-11-29_14h15.30.527,dynamic target,2022.1.3,120.103923517558,
1,2,3,0,mix,0,21,21,21,,,,,,,None,279.69573671628496,None,278.70491099290393,None,279.19615139641064,None,1,[0.008637405366243911],[0.5177494639301585],279.69573671628496,None,[3 2 2 3 1 1 1 2],space,0,2.2767937177459316,0.0021784336831842666,None,279.71238774291487,None,1,281.99375895186313,None,None,282.49332743437765,None,,,,,,,,,,,,,,,,,,,,,,,,,,,,,,,,,,,,,,,,,,,,,,09_JXL,9,27,F,2022-11-29_14h15.30.527,dynamic target,2022.1.3,120.103923517558,
0,3,4,2,mix,0,22,22,22,,,,,,,None,283.5174463914491,None,282.5349649430127,None,283.01787614502064,None,1,[0.008622973343335616],[0.5173630064282406],283.5174463914491,None,[2 3 1 1 1 3 1 2],space,0,1.8627168508674004,0.002642182685121952,None,283.5340977387905,None,1,285.39917692569725,None,None,285.8987284104952,None,,,,,,,,,,,,,,,,,,,,,,,,,,,,,,,,,,,,,,,,,,,,,,09_JXL,9,27,F,2022-11-29_14h15.30.527,dynamic target,2022.1.3,120.103923517558,
1,4,4,2,mix,0,23,23,23,,,,,,,None,286.93117304123825,None,285.94875220729773,None,286.4316124161578,None,1,[0.009538284308291622],[0.517561526920872],286.93117304123825,None,[1 0 3 0 2 1 0 3],space,0,1.9367678812177473,0.0025405171027159668,None,286.9478266335609,None,1,288.8878202064998,None,None,289.38739093399556,None,,,,,,,,,,,,,,,,,,,,,,,,,,,,,,,,,,,,,,,,,,,,,,09_JXL,9,27,F,2022-11-29_14h15.30.527,dynamic target,2022.1.3,120.103923517558,
0,3,2,1,mix,0,24,24,24,,,,,,,None,290.41984454466365,None,289.4290271597847,None,289.9202842402956,None,1,[0.008664024430800055],[0.5179034055081502],290.41984454466365,None,[3 0 0 3 1 0 0 0],space,0,2.4961630319294272,0.0022980591174928122,None,290.4364865913676,None,0,292.94266189362224,None,None,293.4422313382721,None,,,,,,,,,,,,,,,,,,,,,,,,,,,,,,,,,,,,,,,,,,,,,,09_JXL,9,27,F,2022-11-29_14h15.30.527,dynamic target,2022.1.3,120.103923517558,
1,4,2,2,mix,0,25,25,25,,,,,,,None,294.4663461260925,None,293.48387109188843,294.4830086983411,293.9667688240079,None,1,[0.03318916276930395],[0.5335910144303853],294.4663461260925,None,[2 3 0 0 2 1 1 0],space,0,1.9526588213075229,0.002684837332708412,None,294.4996568385659,None,1,296.4646206975731,None,None,296.9641978393021,None,,,,,,,,,,,,,,,,,,,,,,,,,,,,,,,,,,,,,,,,,,,,,,09_JXL,9,27,F,2022-11-29_14h15.30.527,dynamic target,2022.1.3,120.103923517558,
1,5,2,2,mix,0,26,26,26,,,,,,,None,297.98831695672936,None,297.01421746685264,None,297.4887475120795,None,1,[0.008667872970363533],[0.5089667762003955],297.98831695672936,None,[3 3 0 3 3 1 1 0],space,0,1.9759521063115244,0.0026678396161514684,None,297.99663220727234,None,1,299.9699461140335,None,None,300.4695197279344,None,,,,,,,,,,,,,,,,,,,,,,,,,,,,,,,,,,,,,,,,,,,,,,09_JXL,9,27,F,2022-11-29_14h15.30.527,dynamic target,2022.1.3,120.103923517558,
0,4,4,1,mix,0,27,27,27,,,,,,,None,301.4936303465038,None,300.5111428045466,None,300.99406298647955,None,1,[0.008674607914144872],[0.517653891867667],301.4936303465038,None,[0 1 0 2 2 0 3 3],space,0,2.8935269748353676,0.002532178600631596,None,301.5102897116358,None,1,304.4077902776917,None,None,304.9073587602062,None,,,,,,,,,,,,,,,,,,,,,,,,,,,,,,,,,,,,,,,,,,,,,,09_JXL,9,27,F,2022-11-29_14h15.30.527,dynamic target,2022.1.3,120.103923517558,
1,7,2,0,mix,0,28,28,28,,,,,,,None,305.9398037116598,None,304.94900460734334,None,305.4402264095761,None,1,[0.008649913119370467],[0.5177286176758571],305.9398037116598,None,[0 0 0 3 3 3 3 2],space,0,1.5991101792960762,0.0025257643683289643,None,305.9564547382897,None,1,307.5550802965681,None,None,308.0546494205065,None,,,,,,,,,,,,,,,,,,,,,,,,,,,,,,,,,,,,,,,,,,,,,,09_JXL,9,27,F,2022-11-29_14h15.30.527,dynamic target,2022.1.3,120.103923517558,
1,8,1,2,mix,0,29,29,29,,,,,,,None,309.08709244769034,None,308.09629077768113,None,308.58752284268485,None,1,[0.008661138026582194],[0.517609633664506],309.08709244769034,None,[1 2 1 1 2 0 2 1],space,0,2.819453173960028,0.002326281739442493,None,309.10374507787856,None,1,311.92631458089727,None,None,312.42589845757004,None,,,,,,,,,,,,,,,,,,,,,,,,,,,,,,,,,,,,,,,,,,,,,,09_JXL,9,27,F,2022-11-29_14h15.30.527,dynamic target,2022.1.3,120.103923517558,
1,2,2,0,mix,0,30,30,30,,,,,,,None,313.45000137906027,None,312.4675263448562,None,312.9504343397475,None,1,[0.00859475072047644],[0.517616689319766],313.45000137906027,None,[2 0 0 3 1 2 2 1],space,0,2.0725299208925207,0.00254789347127371,None,313.46665465067144,None,1,315.53986958582664,None,None,316.03944929324837,None,,,,,,,,,,,,,,,,,,,,,,,,,,,,,,,,,,,,,,,,,,,,,,09_JXL,9,27,F,2022-11-29_14h15.30.527,dynamic target,2022.1.3,120.103923517558,
1,1,4,1,mix,0,31,31,31,,,,,,,None,317.0718826990833,None,316.0810714077252,None,316.5723150183476,None,1,[0.008670759374581394],[0.5176231035520686],317.0718826990833,None,[2 1 0 0 2 2 3 0],space,0,2.3389553268971213,0.0025228779632016085,None,317.0885340464247,None,1,319.4281888196083,None,None,319.9277544157177,None,,,,,,,,,,,,,,,,,,,,,,,,,,,,,,,,,,,,,,,,,,,,,,09_JXL,9,27,F,2022-11-29_14h15.30.527,dynamic target,2022.1.3,120.103923517558,
1,2,4,2,mix,0,32,32,32,,,,,,,None,320.95187818346403,None,319.9693752473486,None,320.45230665418876,None,1,[0.008614314129772538],[0.5170041301244055],320.95187818346403,None,[1 1 0 3 2 3 1 2],space,0,4.331029901328293,0.003136078582429036,None,320.9685295308054,None,1,325.29813256037596,None,None,325.7977010428905,None,,,,,,,,,,,,,,,,,,,,,,,,,,,,,,,,,,,,,,,,,,,,,,09_JXL,9,27,F,2022-11-29_14h15.30.527,dynamic target,2022.1.3,120.103923517558,
1,3,4,2,mix,0,33,33,33,,,,,,,None,326.83014535292114,None,325.84771104909305,None,326.33057735147395,None,1,[0.009182615121062554],[0.5177677444926303],326.83014535292114,None,[2 0 0 3 2 1 0 1],space,0,2.115906809001899,0.002557194106884708,None,326.84683486494487,None,1,328.96164417302316,None,None,329.46121778692316,None,,,,,,,,,,,,,,,,,,,,,,,,,,,,,,,,,,,,,,,,,,,,,,09_JXL,9,27,F,2022-11-29_14h15.30.527,dynamic target,2022.1.3,120.103923517558,
1,4,3,2,mix,0,34,34,34,,,,,,,None,330.4853375457734,None,329.5112326037997,None,329.98575014127346,None,1,[0.0085828843903073],[0.5090039787482965],330.4853375457734,None,[3 1 1 3 1 0 1 2],space,0,1.5889644671779024,0.0026649532110241125,None,330.4936592105496,None,1,332.083957491599,None,None,332.58351539063017,None,,,,,,,,,,,,,,,,,,,,,,,,,,,,,,,,,,,,,,,,,,,,,,09_JXL,9,27,F,2022-11-29_14h15.30.527,dynamic target,2022.1.3,120.103923517558,
0,5,1,2,mix,0,35,35,35,,,,,,,None,333.615958417814,None,332.63354303597134,None,333.1164067726595,None,1,[0.008661458738060901],[0.5175201551219288],333.615958417814,None,[2 0 3 1 3 1 2 1],space,0,2.0012228991681695,0.0023166603914432926,None,333.63263157354595,None,1,335.6309164077993,None,None,336.13047174113683,None,,,,,,,,,,,,,,,,,,,,,,,,,,,,,,,,,,,,,,,,,,,,,,09_JXL,9,27,F,2022-11-29_14h15.30.527,dynamic target,2022.1.3,120.103923517558,
0,6,1,2,mix,0,36,36,36,,,,,,,None,337.16291508903305,None,336.1721044390979,None,336.6633461254505,None,1,[0.008648630272546143],[0.517738559735335],337.16291508903305,None,[3 0 2 0 2 3 2 1],space,0,2.7270221606340783,0.002543403506933828,None,337.1795850376484,None,1,339.9105512840333,None,None,340.4101303500312,None,,,,,,,,,,,,,,,,,,,,,,,,,,,,,,,,,,,,,,,,,,,,,,09_JXL,9,27,F,2022-11-29_14h15.30.527,dynamic target,2022.1.3,120.103923517558,
1,7,1,2,mix,0,37,37,37,,,,,,,None,341.4425624730202,None,340.4601381112525,None,340.94299190588026,None,1,[0.00864414031002525],[0.5177263726936872],341.4425624730202,None,[2 1 1 1 0 1 0 2],space,0,2.2706860856433195,0.0024834304340402014,None,341.45921606534284,None,1,343.7322603177736,None,None,344.2318291210005,None,,,,,,,,,,,,,,,,,,,,,,,,,,,,,,,,,,,,,,,,,,,,,,09_JXL,9,27,F,2022-11-29_14h15.30.527,dynamic target,2022.1.3,120.103923517558,
0,8,1,2,mix,0,38,38,38,,,,,,,None,345.2642721481843,None,344.273472402444,None,344.764719220183,None,1,[0.008672362932884425],[0.5177539538935889],345.2642721481843,None,[0 3 0 0 1 1 2 3],space,0,1.2970976497344964,0.002377595599682536,None,345.2809267026423,None,1,346.57982031169286,None,None,347.0793612130084,None,,,,,,,,,,,,,,,,,,,,,,,,,,,,,,,,,,,,,,,,,,,,,,09_JXL,9,27,F,2022-11-29_14h15.30.527,dynamic target,2022.1.3,120.103923517558,
1,7,3,1,mix,0,39,39,39,,,,,,,None,348.11182123790877,None,347.121007380857,None,347.6122564435773,None,1,[0.008643178174679633],[0.5169765489245037],348.11182123790877,None,[0 2 0 1 1 2 1 2],space,0,1.0415418019747449,0.003195410232365248,None,348.12847418880847,None,1,349.1692485021167,None,None,349.6688128153802,None,,,,,,,,,,,,,,,,,,,,,,,,,,,,,,,,,,,,,,,,,,,,,,09_JXL,9,27,F,2022-11-29_14h15.30.527,dynamic target,2022.1.3,120.103923517558,
0,8,2,2,mix,0,40,40,40,,,,,,,None,350.6929301688933,None,349.70213908236747,None,350.193367619544,None,1,[0.008647347425721819],[0.5175381149720124],350.6929301688933,None,[2 1 0 2 1 0 0 1],space,0,2.0440927422050663,0.002550459163103369,None,350.70958408192746,None,1,352.7578277688799,None,None,353.2573898371621,None,,,,,,,,,,,,,,,,,,,,,,,,,,,,,,,,,,,,,,,,,,,,,,09_JXL,9,27,F,2022-11-29_14h15.30.527,dynamic target,2022.1.3,120.103923517558,
1,1,4,2,mix,0,41,41,41,,,,,,,None,354.2898335057689,None,353.2990206108534,354.2981607829979,353.790262938629,None,1,[0.10900122062867013],[0.6168044550695413],354.2898335057689,None,[3 2 0 0 1 3 1 2],space,0,1.2590804942283285,0.0026255056827722,None,354.4064057656251,None,1,355.66364983935546,None,None,356.1632208875627,None,,,,,,,,,,,,,,,,,,,,,,,,,,,,,,,,,,,,,,,,,,,,,,09_JXL,9,27,F,2022-11-29_14h15.30.527,dynamic target,2022.1.3,120.103923517558,
0,2,3,2,mix,0,42,42,42,,,,,,,None,357.19566343367944,None,356.213251419309,None,356.6961129110159,None,1,[0.008659534468279162],[0.5088365672827422],357.19566343367944,None,[0 1 3 2 1 1 1 0],space,0,1.5022478935070467,0.002866039397304121,None,357.2039921541109,None,1,358.71103145347115,None,None,359.21060378452523,None,,,,,,,,,,,,,,,,,,,,,,,,,,,,,,,,,,,,,,,,,,,,,,09_JXL,9,27,F,2022-11-29_14h15.30.527,dynamic target,2022.1.3,120.103923517558,
0,3,1,2,mix,0,43,43,43,,,,,,,None,360.24304071818915,None,359.2606137907278,None,359.7434704717607,None,1,[0.008649913119370467],[0.517351140097162],360.24304071818915,None,[1 0 1 3 1 0 1 2],space,0,0.8613948775673634,0.0027659773722916725,None,360.25969334837737,None,0,361.12561408257534,None,None,361.6251832065137,None,,,,,,,,,,,,,,,,,,,,,,,,,,,,,,,,,,,,,,,,,,,,,,09_JXL,9,27,F,2022-11-29_14h15.30.527,dynamic target,2022.1.3,120.103923517558,
1,4,4,2,mix,0,44,44,44,,,,,,,None,362.64930216358516,None,361.6668168666092,None,362.14972005082655,None,1,[0.008641253904897894],[0.517091042973334],362.64930216358516,None,[0 1 1 0 0 0 2 1],space,0,2.5351606028598326,0.0030382615377675393,None,362.6659541523495,None,1,365.20543663925037,None,None,365.7050031974951,None,,,,,,,,,,,,,,,,,,,,,,,,,,,,,,,,,,,,,,,,,,,,,,09_JXL,9,27,F,2022-11-29_14h15.30.527,dynamic target,2022.1.3,120.103923517558,
0,5,1,2,mix,0,45,45,45,,,,,,,None,366.73745696851813,None,365.7466339711864,None,366.229543569636,None,1,[0.008641895328764804],[0.5164569960998051],366.73745696851813,None,[3 0 2 2 0 0 1 3],space,0,1.3038322730553773,0.0032704567502150894,None,366.7457754261777,None,1,368.0530017645551,None,None,368.552553249354,None,,,,,,,,,,,,,,,,,,,,,,,,,,,,,,,,,,,,,,,,,,,,,,09_JXL,9,27,F,2022-11-29_14h15.30.527,dynamic target,2022.1.3,120.103923517558,
0,4,2,1,mix,0,46,46,46,,,,,,,None,369.576671244291,None,368.60254433357113,None,369.0770984321689,None,1,[0.008659534468279162],[0.5169015024057444],369.576671244291,None,[3 1 0 2 3 1 0 1],space,0,2.552036448335457,0.0033448618478360004,None,369.5933171395345,None,1,372.149448408084,None,None,372.64902298411937,None,,,,,,,,,,,,,,,,,,,,,,,,,,,,,,,,,,,,,,,,,,,,,,09_JXL,9,27,F,2022-11-29_14h15.30.527,dynamic target,2022.1.3,120.103923517558,
1,5,3,2,mix,0,47,47,47,,,,,,,None,373.6814607195612,None,372.6906611341774,None,373.17357329832066,None,1,[0.008665627988193592],[0.5164525061363747],373.6814607195612,None,[2 2 1 0 0 1 3 2],space,0,2.1510398049040305,0.0034057970542562543,None,373.6897936092437,None,1,375.83794954949644,None,None,376.33754433036404,None,,,,,,,,,,,,,,,,,,,,,,,,,,,,,,,,,,,,,,,,,,,,,,09_JXL,9,27,F,2022-11-29_14h15.30.527,dynamic target,2022.1.3,120.103923517558,
1,6,2,2,mix,0,48,48,48,,,,,,,None,377.3699658698697,None,376.37915329566476,None,376.87038760565065,None,1,[0.008677173606884026],[0.5174046989386625],377.3699658698697,None,[1 0 3 3 2 0 1 3],space,0,2.181469244177606,0.0028291575608818675,None,377.3866111236903,None,1,379.56806623079865,None,None,380.0676392032757,None,,,,,,,,,,,,,,,,,,,,,,,,,,,,,,,,,,,,,,,,,,,,,,09_JXL,9,27,F,2022-11-29_14h15.30.527,dynamic target,2022.1.3,120.103923517558,
1,7,1,2,mix,0,49,49,49,,,,,,,None,381.10008639971056,None,380.11764407809187,None,380.6004981934311,None,1,[0.008666269412060501],[0.5175984087572942],381.10008639971056,None,[3 2 3 1 1 2 0 0],space,0,1.4588126358830777,0.0025802853433560813,None,381.11672652214565,None,1,382.5738223629651,None,None,383.07337833772647,None,,,,,,,,,,,,,,,,,,,,,,,,,,,,,,,,,,,,,,,,,,,,,,09_JXL,9,27,F,2022-11-29_14h15.30.527,dynamic target,2022.1.3,120.103923517558,
0,8,4,2,mix,0,50,50,50,,,,,,,None,384.1058313069707,None,383.11501712920744,None,383.6062668333516,None,1,[0.008630028998595662],[0.5169168965639983],384.1058313069707,None,[0 3 2 0 2 2 1 2],space,0,2.1335032934894116,0.0030488450211123563,None,384.1224698258475,None,0,386.25396126958185,None,None,386.75354322198484,None,,,,,,,,,,,,,,,,,,,,,,,,,,,,,,,,,,,,,,,,,,,,,,09_JXL,9,27,F,2022-11-29_14h15.30.527,dynamic target,2022.1.3,120.103923517558,
1,1,3,2,mix,0,51,51,51,,,,,,,None,387.77766249976776,None,386.80355386961037,None,387.2780973847248,None,1,[0.008621049073553877],[0.5176000123155973],387.77766249976776,None,[1 1 0 0 1 3 2 2],space,0,1.645076172318113,0.0023897826413303846,None,387.79431545066745,None,1,389.4512130275625,None,None,389.9507901692906,None,,,,,,,,,,,,,,,,,,,,,,,,,,,,,,,,,,,,,,,,,,,,,,09_JXL,9,27,F,2022-11-29_14h15.30.527,dynamic target,2022.1.3,120.103923517558,
1,2,1,2,mix,0,52,52,52,,,,,,,None,390.9832447420931,None,389.9924331300235,390.9915623979741,390.4836517251397,None,1,[0.10820168655845919],[0.6169968820413487],390.9832447420931,None,[3 1 1 3 1 3 2 3],space,0,3.5397807744657257,0.00265020047663711,None,391.0998205297774,None,1,394.63842073900923,None,None,395.13799916358414,None,,,,,,,,,,,,,,,,,,,,,,,,,,,,,,,,,,,,,,,,,,,,,,09_JXL,9,27,F,2022-11-29_14h15.30.527,dynamic target,2022.1.3,120.103923517558,
1,3,4,2,mix,0,53,53,53,,,,,,,None,396.16210753717223,None,395.1796363515077,None,395.66253921501357,None,1,[0.008590581469434255],[0.5170817423368135],396.16210753717223,None,[1 1 2 1 0 1 2 2],space,0,2.060956400639043,0.003040827230506693,None,396.17876048807193,None,1,398.2436548809419,None,None,398.74322143918755,None,,,,,,,,,,,,,,,,,,,,,,,,,,,,,,,,,,,,,,,,,,,,,,09_JXL,9,27,F,2022-11-29_14h15.30.527,dynamic target,2022.1.3,120.103923517558,
1,4,4,2,mix,0,54,54,54,,,,,,,None,399.7673365477194,None,398.7848541371477,None,399.26777496050454,None,1,[0.00855690674870857],[0.5170192035702712],399.7673365477194,None,[1 0 2 0 0 3 3 2],space,0,1.9271503811396542,0.0030655220261905924,None,399.7840170798181,None,0,401.71567118848634,None,None,402.2152403124247,None,,,,,,,,,,,,,,,,,,,,,,,,,,,,,,,,,,,,,,,,,,,,,,09_JXL,9,27,F,2022-11-29_14h15.30.527,dynamic target,2022.1.3,120.103923517558,
1,5,1,2,mix,0,55,55,55,,,,,,,None,403.2393554209566,None,402.25688199031083,None,402.73978677808645,None,1,[0.008241647225986526],[0.5173318974002541],403.2393554209566,None,[2 3 3 1 0 0 0 2],space,0,2.3261146750310218,0.002352580093429424,None,403.25599137414065,None,1,405.58732688788496,None,None,406.0868963325348,None,,,,,,,,,,,,,,,,,,,,,,,,,,,,,,,,,,,,,,,,,,,,,,09_JXL,9,27,F,2022-11-29_14h15.30.527,dynamic target,2022.1.3,120.103923517558,
0,6,1,2,mix,0,56,56,56,,,,,,,None,407.1193375958047,None,406.1285428210949,None,406.611443760331,None,1,[0.00867172150992701],[0.5170329941702221],407.1193375958047,None,[3 2 3 0 3 2 1 3],space,0,3.0790082956282276,0.003114911614829907,None,407.12766663694765,None,1,410.20836505705756,None,None,410.70790018556374,None,,,,,,,,,,,,,,,,,,,,,,,,,,,,,,,,,,,,,,,,,,,,,,09_JXL,9,27,F,2022-11-29_14h15.30.527,dynamic target,2022.1.3,120.103923517558,
0,7,2,2,mix,0,57,57,57,,,,,,,None,411.74036069153146,None,410.74955372978,None,411.2407941332867,None,1,[0.00865440308189136],[0.5090690832066684],411.74036069153146,None,[2 2 2 2 2 3 2 2],space,0,2.793991557688969,0.0026671981931940536,None,411.7486890912505,None,1,414.5462777247176,None,None,415.0458449243862,None,,,,,,,,,,,,,,,,,,,,,,,,,,,,,,,,,,,,,,,,,,,,,,09_JXL,9,27,F,2022-11-29_14h15.30.527,dynamic target,2022.1.3,120.103923517558,
1,8,3,2,mix,0,58,58,58,,,,,,,None,416.07831200494184,None,415.095862627667,None,415.5787193086999,None,1,[0.008649271696413052],[0.5176179721665903],416.07831200494184,None,[0 2 2 3 1 1 2 2],space,0,2.5114645040603136,0.002636089166117017,None,416.09494346816246,None,1,418.60944316124187,None,None,419.10901420944913,None,,,,,,,,,,,,,,,,,,,,,,,,,,,,,,,,,,,,,,,,,,,,,,09_JXL,9,27,F,2022-11-29_14h15.30.527,dynamic target,2022.1.3,120.103923517558,
0,1,1,2,mix,0,59,59,59,,,,,,,None,420.14147343257,None,419.15064883168,None,419.63357831425037,None,1,[0.008710527615221508],[0.5165525681622967],420.14147343257,None,[0 2 1 2 0 3 0 3],space,0,2.552644196856818,0.003280719522990694,None,420.1497854759973,None,1,422.7059167445459,None,space,423.2221412247209,None,1.3408593917893086,,,,,,,,,,,,,,,,,,,,,,,,,,,,,,,,,,,,,,,,,,,,,09_JXL,9,27,F,2022-11-29_14h15.30.527,dynamic target,2022.1.3,120.103923517558,
0,2,3,2,mix,0,60,60,60,,,,,,,None,425.6034360722325,None,424.6125803623145,None,425.09551690054013,None,1,[0.008750295855861623],[0.5164175485697342],425.6034360722325,None,[2 3 0 2 2 1 3 2],space,0,2.033924580274288,0.003147303488731268,None,425.61174715352445,None,1,427.6433170433211,None,None,428.1429012407053,None,,,,,,,,,,,,,,,,,,,,,,,,,,,,,,,,,,,,,,,,,,,,,,09_JXL,9,27,F,2022-11-29_14h15.30.527,dynamic target,2022.1.3,120.103923517558,
1,2,1,0,mix,0,61,61,61,,,,,,,None,429.17535020105436,None,428.1845175823737,None,428.66744898921297,None,1,[0.008599882106864243],[0.5164448090581573],429.17535020105436,None,[3 1 2 0 2 1 3 0],space,0,4.062108076069308,0.0033236948802368715,None,429.1836808457547,None,1,433.24684018875814,None,None,433.74640867127266,None,,,,,,,,,,,,,,,,,,,,,,,,,,,,,,,,,,,,,,,,,,,,,,09_JXL,9,27,F,2022-11-29_14h15.30.527,dynamic target,2022.1.3,120.103923517558,
0,3,1,2,mix,0,62,62,62,,,,,,,None,434.7705391739628,None,433.78804072780986,None,434.27094583629696,None,1,[0.008644140310934745],[0.5177661409352368],434.7705391739628,None,[1 3 0 1 0 2 3 1],space,0,2.537989920776454,0.0024404550777035183,None,434.78717961710845,None,1,437.32666595254886,None,None,437.8262273794081,None,,,,,,,,,,,,,,,,,,,,,,,,,,,,,,,,,,,,,,,,,,,,,,09_JXL,9,27,F,2022-11-29_14h15.30.527,dynamic target,2022.1.3,120.103923517558,
0,4,4,2,mix,0,63,63,63,,,,,,,None,438.85867201015026,None,437.86787194369845,None,438.35911427147494,None,1,[0.008703151248482754],[0.5175608854979146],438.85867201015026,None,[0 3 3 2 2 3 1 2],space,0,1.5693786085075772,0.0026264678172083222,None,438.8753130947198,None,1,440.448976064009,None,None,440.9485387737142,None,,,,,,,,,,,,,,,,,,,,,,,,,,,,,,,,,,,,,,,,,,,,,,09_JXL,9,27,F,2022-11-29_14h15.30.527,dynamic target,2022.1.3,120.103923517558,
0,5,1,2,mix,0,64,64,64,,,,,,,None,441.98098196125477,None,440.99017628234924,None,441.48143143859033,None,1,[0.00864478173389216],[0.5087759527868911],441.98098196125477,None,[0 0 1 1 1 2 1 1],space,0,2.5361102299684717,0.003061994198105822,None,441.9893097195509,None,1,444.528808242032,None,None,445.0283449740965,None,,,,,,,,,,,,,,,,,,,,,,,,,,,,,,,,,,,,,,,,,,,,,,09_JXL,9,27,F,2022-11-29_14h15.30.527,dynamic target,2022.1.3,120.103923517558,
1,6,4,2,mix,0,65,65,65,,,,,,,None,446.052477721767,None,445.06997991703884,None,445.55291549312915,None,1,[0.008548888959012402],[0.5172639065367548],446.052477721767,None,[2 2 0 0 0 2 3 3],space,0,2.5033174667623825,0.0027444896932138363,None,446.0691293898208,None,0,448.58362972432315,None,None,449.08319981039506,None,,,,,,,,,,,,,,,,,,,,,,,,,,,,,,,,,,,,,,,,,,,,,,09_JXL,9,27,F,2022-11-29_14h15.30.527,dynamic target,2022.1.3,120.103923517558,
0,7,4,2,mix,0,66,66,66,,,,,,,None,450.1073388119431,None,449.1165036275688,None,449.60774820032657,None,1,[0.008233629436290357],[0.5086816635694049],450.1073388119431,None,[2 1 1 1 1 3 0 0],space,0,1.880339954419469,0.0025155015964628546,None,450.11564668611936,None,1,451.997359581228,None,None,452.496933195128,None,,,,,,,,,,,,,,,,,,,,,,,,,,,,,,,,,,,,,,,,,,,,,,09_JXL,9,27,F,2022-11-29_14h15.30.527,dynamic target,2022.1.3,120.103923517558,
1,8,3,2,mix,0,67,67,67,,,,,,,None,453.52104573796714,None,452.5385607617027,None,453.0214774158085,None,1,[0.008629387575638248],[0.517144601813925],453.52104573796714,None,[1 2 2 3 3 2 1 3],space,0,2.362623844497648,0.0030270366314653074,None,453.5376964438856,None,1,455.9023282380813,None,None,456.4018963998843,None,,,,,,,,,,,,,,,,,,,,,,,,,,,,,,,,,,,,,,,,,,,,,,09_JXL,9,27,F,2022-11-29_14h15.30.527,dynamic target,2022.1.3,120.103923517558,
1,1,1,2,mix,0,68,68,68,,,,,,,None,457.43434183240527,None,456.44354256773295,None,456.9264470347971,None,1,[0.008660496602715284],[0.5165006128800087],457.43434183240527,None,[2 0 2 2 0 0 1 0],space,0,2.8414972872014914,0.0032351784730053623,None,457.44266862856693,None,1,460.28189012035,None,None,460.78145026436243,None,,,,,,,,,,,,,,,,,,,,,,,,,,,,,,,,,,,,,,,,,,,,,,09_JXL,9,27,F,2022-11-29_14h15.30.527,dynamic target,2022.1.3,120.103923517558,
0,2,4,2,mix,0,69,69,69,,,,,,,None,461.813904195742,None,460.8230913008256,None,461.3143345907365,None,1,[0.00864478173389216],[0.517216120505509],461.813904195742,None,[2 3 2 0 1 2 0 0],space,0,1.493804197960344,0.0025764368037926033,None,461.83055778806465,None,1,463.3292589060011,None,None,463.8288424619624,None,,,,,,,,,,,,,,,,,,,,,,,,,,,,,,,,,,,,,,,,,,,,,,09_JXL,9,27,F,2022-11-29_14h15.30.527,dynamic target,2022.1.3,120.103923517558,
1,3,4,2,mix,0,70,70,70,,,,,,,None,464.8612845270118,None,463.8704613693235,464.8696066728544,464.3617110734667,None,1,[0.04981613602831203],[0.5500037523261199],464.8612845270118,None,[3 0 0 2 0 1 1 2],space,0,2.396421717922749,0.0029433308982333983,None,464.91123536192026,None,1,467.30917177506853,None,None,467.8087479546622,None,,,,,,,,,,,,,,,,,,,,,,,,,,,,,,,,,,,,,,,,,,,,,,09_JXL,9,27,F,2022-11-29_14h15.30.527,dynamic target,2022.1.3,120.103923517558,
1,6,1,0,mix,0,71,71,71,,,,,,,None,468.83285825251915,None,467.85874801880436,None,468.3332912132073,None,1,[0.008622011207989999],[0.5176837180488292],468.83285825251915,None,[2 0 0 2 0 0 2 3],space,0,1.4019164701185218,0.0024750919319558307,None,468.8495198626333,None,1,470.2566254210142,None,None,470.7562022420308,None,,,,,,,,,,,,,,,,,,,,,,,,,,,,,,,,,,,,,,,,,,,,,,09_JXL,9,27,F,2022-11-29_14h15.30.527,dynamic target,2022.1.3,120.103923517558,
0,7,4,2,mix,0,72,72,72,,,,,,,None,471.7886471934844,None,470.80624271583747,None,471.28907566421003,None,1,[0.008633236115201726],[0.5174329215615217],471.7886471934844,None,[2 1 1 3 2 2 0 0],space,0,2.4136907558458915,0.002745131116171251,None,471.80530399292365,None,1,474.21989271554867,None,None,474.7194541424079,None,,,,,,,,,,,,,,,,,,,,,,,,,,,,,,,,,,,,,,,,,,,,,,09_JXL,9,27,F,2022-11-29_14h15.30.527,dynamic target,2022.1.3,120.103923517558,
0,8,2,2,mix,0,73,73,73,,,,,,,None,475.75190679094067,None,474.76109357531277,None,475.2523352616654,None,1,[0.007760900506582402],[0.5165467953529514],475.75190679094067,None,[1 0 0 2 2 0 3 3],space,0,1.0426768003999314,0.0027829750879391213,None,475.76857257030497,None,0,476.81764914533596,None,None,477.3172176278505,None,,,,,,,,,,,,,,,,,,,,,,,,,,,,,,,,,,,,,,,,,,,,,,09_JXL,9,27,F,2022-11-29_14h15.30.527,dynamic target,2022.1.3,120.103923517558,
0,1,1,2,mix,0,74,74,74,,,,,,,None,478.34966354143853,None,477.36726996798643,None,477.850080145834,None,1,[0.008635160384983465],[0.5176105957989421],478.34966354143853,None,[3 3 0 3 0 1 0 1],space,0,3.3085367918174597,0.002562646203841723,None,478.3663219444361,None,1,481.68845078968843,None,None,482.18802376216547,None,,,,,,,,,,,,,,,,,,,,,,,,,,,,,,,,,,,,,,,,,,,,,,09_JXL,9,27,F,2022-11-29_14h15.30.527,dynamic target,2022.1.3,120.103923517558,
1,6,1,0,mix,0,75,75,75,,,,,,,None,483.220467591129,None,482.22965742226097,None,482.7125978090262,None,1,[0.008704113382918877],[0.5164993300340939],483.220467591129,None,[3 3 0 1 1 3 1 2],space,0,2.0942376076445726,0.003424719040594937,None,483.2287940665783,None,1,485.3270020583277,None,None,485.82655354312567,None,,,,,,,,,,,,,,,,,,,,,,,,,,,,,,,,,,,,,,,,,,,,,,09_JXL,9,27,F,2022-11-29_14h15.30.527,dynamic target,2022.1.3,120.103923517558,
0,7,4,2,mix,0,76,76,76,,,,,,,None,486.8589869489615,None,485.8681945795888,None,486.3594381902112,None,1,[0.008651516677673499],[0.5176561368489274],486.8589869489615,None,[1 2 1 2 2 1 0 1],space,0,2.606805654632808,0.0024805440298223402,None,486.8756540111726,None,1,489.48174541526714,None,None,489.98131902916805,None,,,,,,,,,,,,,,,,,,,,,,,,,,,,,,,,,,,,,,,,,,,,,,09_JXL,9,27,F,2022-11-29_14h15.30.527,dynamic target,2022.1.3,120.103923517558,
0,8,3,2,mix,0,77,77,77,,,,,,,None,491.005429327025,None,490.0313081891145,None,490.50586709838717,None,1,[0.008675249337102287],[0.5178546573415588],491.005429327025,None,[3 3 0 2 0 0 3 2],space,0,1.5155708956508533,0.002457132080962765,None,491.02208324006006,None,1,492.53744404383997,None,None,493.037012205643,None,,,,,,,,,,,,,,,,,,,,,,,,,,,,,,,,,,,,,,,,,,,,,,09_JXL,9,27,F,2022-11-29_14h15.30.527,dynamic target,2022.1.3,120.103923517558,
0,1,4,2,mix,0,78,78,78,,,,,,,None,494.0611314834259,None,493.07030319435216,None,493.56157598973186,None,1,[0.00860693776212429],[0.5175384356844006],494.0611314834259,None,[0 1 0 3 0 1 2 1],space,0,3.3880142627886016,0.002691251564101549,None,494.0777834721912,None,1,497.46653310096735,None,None,497.96611152554226,None,,,,,,,,,,,,,,,,,,,,,,,,,,,,,,,,,,,,,,,,,,,,,,09_JXL,9,27,F,2022-11-29_14h15.30.527,dynamic target,2022.1.3,120.103923517558,
1,8,3,1,mix,0,79,79,79,,,,,,,None,498.99022150268775,None,497.99940540065563,None,498.4906348999666,None,1,[0.008607899896560411],[0.5176821144896167],498.99022150268775,None,[2 1 0 1 0 2 3 2],space,0,1.6742153887435052,0.0022467452581622638,None,499.00687733999257,None,1,500.68042947134563,None,None,501.1800066130737,None,,,,,,,,,,,,,,,,,,,,,,,,,,,,,,,,,,,,,,,,,,,,,,09_JXL,9,27,F,2022-11-29_14h15.30.527,dynamic target,2022.1.3,120.103923517558,
0,1,4,2,mix,0,80,80,80,,,,,,,None,502.21244964025755,None,501.2216322553786,502.2207711446772,501.7128893358895,None,1,[0.13301963460708066],[0.6333528539807958],502.21244964025755,None,[1 0 1 2 2 3 3 2],space,0,2.255572550522629,0.002595679501609993,None,502.3456671539343,None,1,504.6020414577497,None,None,505.1016227687288,None,,,,,,,,,,,,,,,,,,,,,,,,,,,,,,,,,,,,,,,,,,,,,,09_JXL,9,27,F,2022-11-29_14h15.30.527,dynamic target,2022.1.3,120.103923517558,
0,7,1,0,mix,0,81,81,81,,,,,,,None,506.134066758048,None,505.1515984587886,None,505.63449651161955,None,1,[0.008641895328764804],[0.5174419014865634],506.134066758048,None,[3 3 2 0 0 2 1 2],space,0,2.545769422557896,0.002464829160089721,None,506.15071040831117,None,1,508.698525624538,None,None,509.1980941070525,None,,,,,,,,,,,,,,,,,,,,,,,,,,,,,,,,,,,,,,,,,,,,,,09_JXL,9,27,F,2022-11-29_14h15.30.527,dynamic target,2022.1.3,120.103923517558,
1,8,3,2,mix,0,82,82,82,,,,,,,None,510.2305382567275,None,509.2397146179719,None,509.7309729813287,None,1,[0.008570376637180743],[0.5086005235298217],510.2305382567275,None,[0 1 2 1 3 0 2 2],space,0,1.4343907666861924,0.003036016556507093,None,510.23886569431215,None,1,511.67097168565397,None,None,512.1705353574945,None,,,,,,,,,,,,,,,,,,,,,,,,,,,,,,,,,,,,,,,,,,,,,,09_JXL,9,27,F,2022-11-29_14h15.30.527,dynamic target,2022.1.3,120.103923517558,
0,7,2,1,mix,0,83,83,83,,,,,,,None,513.2029819125064,None,512.212169659013,None,512.7034084589613,None,1,[0.008637405366243911],[0.5175926359488585],513.2029819125064,None,[2 3 1 3 2 1 3 1],space,0,1.1880178547589821,0.001844572885602247,None,513.219608565053,None,1,514.4102786791555,None,None,514.9098551794606,None,,,,,,,,,,,,,,,,,,,,,,,,,,,,,,,,,,,,,,,,,,,,,,09_JXL,9,27,F,2022-11-29_14h15.30.527,dynamic target,2022.1.3,120.103923517558,
1,8,2,2,mix,0,84,84,84,,,,,,,None,515.9422844160454,None,514.9598529986215,None,515.44274046797,None,1,[0.008850357881783566],[0.5175355492792733],515.9422844160454,None,[0 0 2 0 2 1 2 3],space,0,1.4893607384565257,0.002614601487039181,None,515.9589341598285,None,1,517.4493291675035,None,None,517.9488777658972,None,,,,,,,,,,,,,,,,,,,,,,,,,,,,,,,,,,,,,,,,,,,,,,09_JXL,9,27,F,2022-11-29_14h15.30.527,dynamic target,2022.1.3,120.103923517558,
1,1,2,2,mix,0,85,85,85,,,,,,,None,518.9813607216785,None,517.9905255373042,None,518.4817656200994,None,1,[0.008663703719321347],[0.5089905088607338],518.9813607216785,None,[0 2 3 0 1 0 0 3],space,0,1.9150983591480326,0.002845193142093194,None,518.98966186091,None,1,520.9046774507015,None,None,521.4042475367743,None,,,,,,,,,,,,,,,,,,,,,,,,,,,,,,,,,,,,,,,,,,,,,,09_JXL,9,27,F,2022-11-29_14h15.30.527,dynamic target,2022.1.3,120.103923517558,
1,2,3,2,mix,0,86,86,86,,,,,,,None,522.4366928089403,None,521.4458776690426,522.4450165583412,521.937121279665,None,1,[0.04157705449506466],[0.5416726265575562],522.4366928089403,None,[0 2 1 2 0 3 0 2],space,0,1.9939318411852582,0.0029696292513108347,None,522.4783250258333,None,1,524.476602483719,None,None,524.9761716076574,None,,,,,,,,,,,,,,,,,,,,,,,,,,,,,,,,,,,,,,,,,,,,,,09_JXL,9,27,F,2022-11-29_14h15.30.527,dynamic target,2022.1.3,120.103923517558,
0,2,4,0,mix,0,87,87,87,,,,,,,None,526.0002889611706,None,525.0178036641946,None,525.500719997588,None,1,[0.00864349888615834],[0.5174123960168799],526.0002889611706,None,[3 0 3 0 2 3 3 0],space,0,1.527243515793998,0.0026716881557149463,None,526.0169435156276,None,1,527.5489803615446,None,None,528.0485414676924,None,,,,,,,,,,,,,,,,,,,,,,,,,,,,,,,,,,,,,,,,,,,,,,09_JXL,9,27,F,2022-11-29_14h15.30.527,dynamic target,2022.1.3,120.103923517558,
1,3,2,2,mix,0,88,88,88,,,,,,,None,529.0726431063358,None,528.0818379084985,None,528.5730747841772,None,1,[0.00912232133669022],[0.517647798346843],529.0726431063358,None,[2 0 1 0 1 1 2 1],space,0,1.8304324155797076,0.002516463730898977,None,529.0893127342397,None,1,530.9210529860502,None,None,531.4206211478523,None,,,,,,,,,,,,,,,,,,,,,,,,,,,,,,,,,,,,,,,,,,,,,,09_JXL,9,27,F,2022-11-29_14h15.30.527,dynamic target,2022.1.3,120.103923517558,
0,2,3,1,mix,0,89,89,89,,,,,,,None,532.4613906504866,None,531.4873033476524,None,531.9535163784221,None,1,[0.009337518833490321],[0.5165435882372549],532.4613906504866,None,[2 2 1 2 1 3 3 0],space,0,2.3212738538295525,0.0024330787100552698,None,532.4697219366108,None,1,534.7927279281457,None,None,535.2922877514458,None,,,,,,,,,,,,,,,,,,,,,,,,,,,,,,,,,,,,,,,,,,,,,,09_JXL,9,27,F,2022-11-29_14h15.30.527,dynamic target,2022.1.3,120.103923517558,
0,3,4,2,mix,0,90,90,90,,,,,,,None,536.3163807308765,None,535.3339207701183,None,535.8168428763211,None,1,[0.008586091506913363],[0.5171930292690377],536.3163807308765,None,[1 0 0 3 0 1 2 3],space,0,2.2670671757159653,0.0028150462503617746,None,536.3330506794919,None,1,538.5977721446561,None,None,539.0973438342872,None,,,,,,,,,,,,,,,,,,,,,,,,,,,,,,,,,,,,,,,,,,,,,,09_JXL,9,27,F,2022-11-29_14h15.30.527,dynamic target,2022.1.3,120.103923517558,
0,4,4,2,mix,0,91,91,91,,,,,,,None,540.1214727334191,None,539.1389813429223,None,539.6218919035073,None,1,[0.008610786301687767],[0.5170397291140034],540.1214727334191,None,[3 3 2 1 3 1 3 3],space,0,1.3101118065869741,0.0031200430012177094,None,540.1381141387001,None,1,541.445326365767,None,None,541.944890358318,None,,,,,,,,,,,,,,,,,,,,,,,,,,,,,,,,,,,,,,,,,,,,,,09_JXL,9,27,F,2022-11-29_14h15.30.527,dynamic target,2022.1.3,120.103923517558,
1,6,2,0,mix,0,92,92,92,,,,,,,None,542.977335149417,None,541.9865185663166,None,542.4694409932308,None,1,[0.00859122289239167],[0.5164201142633829],542.977335149417,None,[2 3 1 3 1 1 0 2],space,0,2.045940682563014,0.0032287642407027306,None,542.9856619455777,None,1,545.0338992182978,None,None,545.5334660972541,None,,,,,,,,,,,,,,,,,,,,,,,,,,,,,,,,,,,,,,,,,,,,,,09_JXL,9,27,F,2022-11-29_14h15.30.527,dynamic target,2022.1.3,120.103923517558,
1,8,4,0,mix,0,93,93,93,,,,,,,None,546.557590185711,None,545.5834700099358,None,546.05801544932,None,1,[0.008654082370412652],[0.5176779452385745],546.557590185711,None,[0 3 2 2 1 1 2 3],space,0,3.7845466004619084,0.0025594390881451545,None,546.574244740169,None,1,550.3626411371661,None,None,550.8622185996065,None,,,,,,,,,,,,,,,,,,,,,,,,,,,,,,,,,,,,,,,,,,,,,,09_JXL,9,27,F,2022-11-29_14h15.30.527,dynamic target,2022.1.3,120.103923517558,
1,1,2,2,mix,0,94,94,94,,,,,,,None,551.8946561746934,None,550.903848731874,None,551.3951048502504,None,1,[0.008636443231807789],[0.5176163686082873],551.8946561746934,None,[2 1 3 1 0 3 0 3],space,0,2.495417698123674,0.0026043387151730713,None,551.9112940521463,None,1,554.4091539435021,None,None,554.9087272366916,None,,,,,,,,,,,,,,,,,,,,,,,,,,,,,,,,,,,,,,,,,,,,,,09_JXL,9,27,F,2022-11-29_14h15.30.527,dynamic target,2022.1.3,120.103923517558,
1,8,3,1,mix,0,95,95,95,,,,,,,None,555.9411709052983,None,554.9503727631163,None,555.4416006588699,None,1,[0.008624256189250445],[0.517729259097905],555.9411709052983,None,[0 2 2 3 3 2 3 3],space,0,1.3445122971470482,0.0024712433923923527,None,555.9578235354866,None,1,557.3066346254382,None,None,557.8062220299381,None,,,,,,,,,,,,,,,,,,,,,,,,,,,,,,,,,,,,,,,,,,,,,,09_JXL,9,27,F,2022-11-29_14h15.30.527,dynamic target,2022.1.3,120.103923517558,
0,1,1,2,mix,0,96,96,96,,,,,,,None,558.8303332899304,None,557.8562079827689,None,558.330785172604,None,1,[0.00861880409229343],[0.5178219447570882],558.8303332899304,None,[3 2 2 1 2 0 3 3],space,0,3.111033916638007,0.0023609185946043,None,558.8469987485832,None,1,561.9609844692195,None,None,562.4605526310216,None,,,,,,,,,,,,,,,,,,,,,,,,,,,,,,,,,,,,,,,,,,,,,,09_JXL,9,27,F,2022-11-29_14h15.30.527,dynamic target,2022.1.3,120.103923517558,
1,2,4,2,mix,0,97,97,97,,,,,,,None,563.4846869822513,None,562.5105712964387,None,562.9851019830885,None,1,[0.008639008924546943],[0.5174993088667179],563.4846869822513,None,[2 2 0 3 1 0 1 0],space,0,1.4807544421182683,0.0026351270307714003,None,563.5013251804166,None,1,564.983381365244,None,None,565.4829347743126,None,,,,,,,,,,,,,,,,,,,,,,,,,,,,,,,,,,,,,,,,,,,,,,09_JXL,9,27,F,2022-11-29_14h15.30.527,dynamic target,2022.1.3,120.103923517558,
1,3,2,2,mix,0,98,98,98,,,,,,,None,566.5153944785006,None,565.5329582504028,None,566.015826156342,None,1,[0.008669155816278362],[0.5178504880914261],566.5153944785006,None,[1 0 1 3 1 2 1 1],space,0,2.609555756778718,0.0024757333549132454,None,566.5320480708233,None,1,569.1464795806123,None,None,569.6460175955227,None,,,,,,,,,,,,,,,,,,,,,,,,,,,,,,,,,,,,,,,,,,,,,,09_JXL,9,27,F,2022-11-29_14h15.30.527,dynamic target,2022.1.3,120.103923517558,
1,4,1,2,mix,0,99,99,99,,,,,,,None,570.6784752150853,None,569.6876685740453,None,570.1705794553418,None,1,[0.00864349888615834],[0.5164480161738538],570.6784752150853,None,[0 2 0 2 3 3 3 3],space,0,1.3192661990851775,0.0032512140533071943,None,570.6867959177262,None,0,572.0106768105616,None,None,572.5102295782063,None,,,,,,,,,,,,,,,,,,,,,,,,,,,,,,,,,,,,,,,,,,,,,,09_JXL,9,27,F,2022-11-29_14h15.30.527,dynamic target,2022.1.3,120.103923517558,
0,5,2,2,mix,0,100,100,100,,,,,,,None,573.5426748503724,None,572.5602463193536,None,573.0431036418086,None,1,[0.008612389859081304],[0.5176147650490748],573.5426748503724,None,[3 2 1 2 1 0 2 3],space,0,3.2456664099854606,0.0025822096131378203,None,573.5593162556534,None,1,576.806532318431,None,None,577.3060979145404,None,,,,,,,,,,,,,,,,,,,,,,,,,,,,,,,,,,,,,,,,,,,,,,09_JXL,9,27,F,2022-11-29_14h15.30.527,dynamic target,2022.1.3,120.103923517558,
0,6,3,2,mix,0,101,101,101,,,,,,,None,578.3385435074179,None,577.3561088828783,None,577.8389787130873,None,1,[0.007765390469103295],[0.516575659398768],578.3385435074179,None,[0 2 2 1 0 3 2 3],space,0,2.64186841468927,0.0028362132170514087,None,578.3552022311269,None,1,580.9945979334625,None,None,581.4941587188988,None,,,,,,,,,,,,,,,,,,,,,,,,,,,,,,,,,,,,,,,,,,,,,,09_JXL,9,27,F,2022-11-29_14h15.30.527,dynamic target,2022.1.3,120.103923517558,
1,7,1,2,mix,0,102,102,102,,,,,,,None,582.5182770345464,None,581.5357952653985,None,582.018714485197,None,1,[0.008647668137200526],[0.5169627583245529],582.5182770345464,None,[1 2 1 1 2 2 1 2],space,0,3.823019807892706,0.0032858509084690013,None,582.5349303061575,None,1,586.3566380570519,None,None,586.8562155194924,None,,,,,,,,,,,,,,,,,,,,,,,,,,,,,,,,,,,,,,,,,,,,,,09_JXL,9,27,F,2022-11-29_14h15.30.527,dynamic target,2022.1.3,120.103923517558,
1,6,3,1,mix,0,103,103,103,,,,,,,None,587.8886444353648,None,586.897852707416,None,587.3890838102852,None,1,[0.008675249337102287],[0.5176061058364212],587.8886444353648,None,[3 1 3 1 1 1 2 2],space,0,2.5472267361619743,0.0025443656422794447,None,587.9053105354405,None,1,590.4531135646266,None,None,590.9526798021599,None,,,,,,,,,,,,,,,,,,,,,,,,,,,,,,,,,,,,,,,,,,,,,,09_JXL,9,27,F,2022-11-29_14h15.30.527,dynamic target,2022.1.3,120.103923517558,
0,7,1,2,mix,0,104,104,104,,,,,,,None,591.9851241121905,None,591.0026882048041,592.0017898915548,591.4855538657621,None,1,[0.14177826896593615],[0.6418921215908995],591.9851241121905,None,[0 2 2 2 1 0 0 0],space,0,2.3098369567278496,0.0026085079671247513,None,592.1266669788265,None,1,594.441341844592,None,None,594.9409109685304,None,,,,,,,,,,,,,,,,,,,,,,,,,,,,,,,,,,,,,,,,,,,,,,09_JXL,9,27,F,2022-11-29_14h15.30.527,dynamic target,2022.1.3,120.103923517558,
0,5,1,0,mix,0,105,105,105,,,,,,,None,595.9733543164257,None,594.9909309167924,None,595.4737843907087,None,1,[0.008609503454863443],[0.5174989881543297],595.9733543164257,None,[2 2 1 1 0 0 2 0],space,0,1.7742318733198772,0.0026909308526228415,None,595.9899986081118,None,1,597.7634867254255,None,None,598.2630635464421,None,,,,,,,,,,,,,,,,,,,,,,,,,,,,,,,,,,,,,,,,,,,,,,09_JXL,9,27,F,2022-11-29_14h15.30.527,dynamic target,2022.1.3,120.103923517558,
1,6,4,2,mix,0,106,106,106,,,,,,,None,599.2954919812474,None,598.3046936787096,None,598.7959315165235,None,1,[0.008648630272546143],[0.5087682557068547],599.2954919812474,None,[0 1 2 3 1 0 2 1],space,0,6.219892099883509,0.0030546178304575733,None,599.3038187774091,None,1,605.5234664692798,None,None,606.0230301411194,None,,,,,,,,,,,,,,,,,,,,,,,,,,,,,,,,,,,,,,,,,,,,,,09_JXL,9,27,F,2022-11-29_14h15.30.527,dynamic target,2022.1.3,120.103923517558,
1,7,4,2,mix,0,107,107,107,,,,,,,None,607.055488883173,None,606.0646654047732,607.0638014076676,606.5475676268561,None,1,[0.09148972472030437],[0.5918123606106747],607.055488883173,None,[2 0 2 1 3 3 2 2],space,0,3.057433383487478,0.002903883369071991,None,607.1387433748996,None,1,610.1944384756453,None,None,610.6940059960244,None,,,,,,,,,,,,,,,,,,,,,,,,,,,,,,,,,,,,,,,,,,,,,,09_JXL,9,27,F,2022-11-29_14h15.30.527,dynamic target,2022.1.3,120.103923517558,
0,8,3,2,mix,0,108,108,108,,,,,,,None,611.7264528717478,None,610.752347448707,None,611.2268819838964,None,1,[0.00813228456354409],[0.5171019471681575],611.7264528717478,None,[0 3 3 2 2 1 2 1],space,0,2.2278582558283233,0.002635768453728815,None,611.743100691262,None,1,613.9745098403946,None,None,614.4740783229091,None,,,,,,,,,,,,,,,,,,,,,,,,,,,,,,,,,,,,,,,,,,,,,,09_JXL,9,27,F,2022-11-29_14h15.30.527,dynamic target,2022.1.3,120.103923517558,
0,1,2,2,mix,0,109,109,109,,,,,,,None,615.5065287264606,None,614.5241149481762,None,615.0069607250134,None,1,[0.0076470478816190735],[0.516380666733312],615.5065287264606,None,[2 2 1 0 0 1 1 0],space,0,1.3596502063519438,0.0027066457223554607,None,615.5231916194207,None,1,616.8803466636055,None,None,617.379924126045,None,,,,,,,,,,,,,,,,,,,,,,,,,,,,,,,,,,,,,,,,,,,,,,09_JXL,9,27,F,2022-11-29_14h15.30.527,dynamic target,2022.1.3,120.103923517558,
0,2,1,2,mix,0,110,110,110,,,,,,,None,618.4123719639038,None,617.4299100788758,None,617.9127888890098,None,1,[0.009350988721962494],[0.517585580292689],618.4123719639038,None,[0 1 1 0 0 1 3 3],space,0,2.1974374757674013,0.002580285344265576,None,618.4290197834171,None,1,620.6271175786533,None,None,621.1266863818793,None,,,,,,,,,,,,,,,,,,,,,,,,,,,,,,,,,,,,,,,,,,,,,,09_JXL,9,27,F,2022-11-29_14h15.30.527,dynamic target,2022.1.3,120.103923517558,
0,3,3,2,mix,0,111,111,111,,,,,,,None,622.1591319747558,None,621.1683264562071,None,621.6595719910993,None,1,[0.008638046789201326],[0.5176567782718848],622.1591319747558,None,[0 1 3 1 0 0 0 1],space,0,1.7473373175280358,0.0025360271392855793,None,622.175775625019,None,1,623.924288324878,None,None,624.4238468653331,None,,,,,,,,,,,,,,,,,,,,,,,,,,,,,,,,,,,,,,,,,,,,,,09_JXL,9,27,F,2022-11-29_14h15.30.527,dynamic target,2022.1.3,120.103923517558,
0,4,4,2,mix,0,112,112,112,,,,,,,None,625.4562863646888,None,624.4654811668515,None,624.9567228532042,None,1,[0.00866338300784264],[0.5176506847519704],625.4562863646888,None,[2 2 0 3 1 0 2 1],space,0,2.257430112228576,0.0025632876277086325,None,625.4729591997093,None,1,627.7293331828132,None,None,628.2289026274622,None,,,,,,,,,,,,,,,,,,,,,,,,,,,,,,,,,,,,,,,,,,,,,,09_JXL,9,27,F,2022-11-29_14h15.30.527,dynamic target,2022.1.3,120.103923517558,
1,5,3,2,mix,0,113,113,113,,,,,,,None,629.2613406836164,None,628.2705391739628,None,628.7617805396039,None,1,[0.00862361476629303],[0.5086627415848852],629.2613406836164,None,[1 0 2 2 2 2 3 0],space,0,1.4528076314982172,0.002827874714967038,None,629.2696738940103,None,1,630.7267652448663,None,None,631.226323464609,None,,,,,,,,,,,,,,,,,,,,,,,,,,,,,,,,,,,,,,,,,,,,,,09_JXL,9,27,F,2022-11-29_14h15.30.527,dynamic target,2022.1.3,120.103923517558,
1,1,1,0,mix,0,114,114,114,,,,,,,None,632.2587664917937,None,631.2679558418586,632.2670912033291,631.7591952832299,None,1,[0.08303897351743217],[0.5911619574435463],632.2587664917937,None,[1 2 0 2 2 2 3 1],space,0,2.292681130006713,0.003536326684297819,None,632.3503543542693,None,1,634.6400470676372,None,None,635.13961715371,None,,,,,,,,,,,,,,,,,,,,,,,,,,,,,,,,,,,,,,,,,,,,,,09_JXL,9,27,F,2022-11-29_14h15.30.527,dynamic target,2022.1.3,120.103923517558,
1,2,3,2,mix,0,115,115,115,,,,,,,None,636.1720617844521,None,635.1896342155687,None,635.6724912173122,None,1,[0.008613031282948214],[0.5175826938884711],636.1720617844521,None,[1 0 3 1 1 2 3 3],space,0,1.2535960048053312,0.0026056215610879008,None,636.1887179424684,None,1,637.445965544026,None,None,637.9455340265414,None,,,,,,,,,,,,,,,,,,,,,,,,,,,,,,,,,,,,,,,,,,,,,,09_JXL,9,27,F,2022-11-29_14h15.30.527,dynamic target,2022.1.3,120.103923517558,
0,3,1,2,mix,0,116,116,116,,,,,,,None,638.9696651706536,None,637.9871654416556,None,638.4700833786073,None,1,[0.008622652631856909],[0.5168675069744495],638.9696651706536,None,[0 3 0 1 1 0 0 0],space,0,1.7357445545785595,0.0030097182034296566,None,638.9863049723772,None,1,640.7264814150822,None,None,641.2260476526154,None,,,,,,,,,,,,,,,,,,,,,,,,,,,,,,,,,,,,,,,,,,,,,,09_JXL,9,27,F,2022-11-29_14h15.30.527,dynamic target,2022.1.3,120.103923517558,
1,4,3,2,mix,0,117,117,117,,,,,,,None,642.2584749649304,None,641.2676970275807,None,641.7589156226968,None,1,[0.008665948700581794],[0.5172542851887556],642.2584749649304,None,[0 1 1 3 1 2 1 3],space,0,1.8870152460904137,0.002901959099290252,None,642.275138820025,None,1,644.1651789923626,None,None,644.6647455506073,None,,,,,,,,,,,,,,,,,,,,,,,,,,,,,,,,,,,,,,,,,,,,,,09_JXL,9,27,F,2022-11-29_14h15.30.527,dynamic target,2022.1.3,120.103923517558,
1,3,1,1,mix,0,118,118,118,,,,,,,None,645.697189860638,None,644.7063792107028,None,645.1976231420376,None,1,[0.008565565963181143],[0.5178055884643982],645.697189860638,None,[0 2 0 2 2 0 2 0],space,0,2.7995180603347762,0.002355466497647285,None,645.713844415096,None,1,648.5114317657162,None,None,649.010997682538,None,,,,,,,,,,,,,,,,,,,,,,,,,,,,,,,,,,,,,,,,,,,,,,09_JXL,9,27,F,2022-11-29_14h15.30.527,dynamic target,2022.1.3,120.103923517558,
0,4,4,2,mix,0,119,119,119,,,,,,,None,650.0351269023813,None,649.0526335876148,650.0517727976248,649.5355383753904,None,1,[0.09145540857753076],[0.5918229440940195],650.0351269023813,None,[0 1 2 2 2 2 0 1],space,0,3.0594060806652124,0.0027127392422698904,None,650.1267096334714,None,1,653.1907451606221,None,space,653.698634025066,None,0.7074250770565413,,,,,,,,,,,,,,,,,,,,,,,,,,,,,,,,,,,,,,,,,,,,,09_JXL,9,27,F,2022-11-29_14h15.30.527,dynamic target,2022.1.3,120.103923517558,
0,3,2,1,mix,0,120,120,120,,,,,,,None,655.4471258786698,None,654.4563171530044,655.4554563630145,654.9475556322413,None,2,"[0.008608862031906028, 0.3586447496618348]","[0.23359896807778568, 0.8670303964054256]",655.4471258786698,None,[0 3 0 0 3 3 1 1],space,0,1.4675767223388902,0.002816329096276604,None,655.8134827806725,None,1,657.2788815246377,None,None,657.7784503278637,None,,,,,,,,,,,,,,,,,,,,,,,,,,,,,,,,,,,,,,,,,,,,,,09_JXL,9,27,F,2022-11-29_14h15.30.527,dynamic target,2022.1.3,120.103923517558,
0,4,3,2,mix,0,121,121,121,,,,,,,None,658.810893675759,None,657.8200881572102,658.8192187080067,658.311318297945,None,2,"[0.008643178174679633, 0.1671080727601293]","[0.03376965080224181, 0.6672126247485721]",658.810893675759,None,[1 2 2 3 1 0 1 3],space,0,1.3756713553584632,0.0025645704745329567,None,658.9774190155049,None,1,660.3512417633237,None,None,660.8508044730289,None,,,,,,,,,,,,,,,,,,,,,,,,,,,,,,,,,,,,,,,,,,,,,,09_JXL,9,27,F,2022-11-29_14h15.30.527,dynamic target,2022.1.3,120.103923517558,
0,5,2,2,mix,0,122,122,122,,,,,,,None,661.8832455759439,None,660.9008186484825,None,661.3836756502269,None,1,[0.009003658036817797],[0.517589428831343],661.8832455759439,None,[3 2 2 0 1 3 3 2],space,0,1.5089895724840972,0.0026428241098983563,None,661.8998885847832,None,1,663.4069391090507,None,None,663.9064947631006,None,,,,,,,,,,,,,,,,,,,,,,,,,,,,,,,,,,,,,,,,,,,,,,09_JXL,9,27,F,2022-11-29_14h15.30.527,dynamic target,2022.1.3,120.103923517558,
0,6,1,2,mix,0,123,123,123,,,,,,,None,664.9389470909209,None,663.9565140699397,None,664.4393797308976,None,1,[0.00920891347413999],[0.5174874425365488],664.9389470909209,None,[1 0 2 3 2 1 3 2],space,0,1.8609702553812895,0.0025786817850530497,None,664.9556080596112,None,1,666.8206606274534,None,None,667.320220130042,None,,,,,,,,,,,,,,,,,,,,,,,,,,,,,,,,,,,,,,,,,,,,,,09_JXL,9,27,F,2022-11-29_14h15.30.527,dynamic target,2022.1.3,120.103923517558,
1,7,4,2,mix,0,124,124,124,,,,,,,None,668.3526795135194,None,667.3618573179656,None,667.8531044564161,None,1,[0.008589619334998133],[0.516899257424484],668.3526795135194,None,[1 3 0 2 1 0 3 0],space,0,2.3677254042459026,0.003226198547963577,None,668.3693372750931,None,1,670.7339546372659,None,None,671.2335253647617,None,,,,,,,,,,,,,,,,,,,,,,,,,,,,,,,,,,,,,,,,,,,,,,09_JXL,9,27,F,2022-11-29_14h15.30.527,dynamic target,2022.1.3,120.103923517558,
1,8,3,2,mix,0,125,125,125,,,,,,,None,672.2659693540809,None,671.2835308810018,None,671.7663991076524,None,1,[0.008975435413958621],[0.5173091268752614],672.2659693540809,None,[0 1 3 2 2 2 0 0],space,0,2.277176005997717,0.0026466726494618342,None,672.2826306434827,None,1,674.5639951174862,None,None,675.0635581479038,None,,,,,,,,,,,,,,,,,,,,,,,,,,,,,,,,,,,,,,,,,,,,,,09_JXL,9,27,F,2022-11-29_14h15.30.527,dynamic target,2022.1.3,120.103923517558,
0,1,4,2,mix,0,126,126,126,,,,,,,None,676.0960072686084,None,675.105194373692,None,675.5964354186217,None,1,[0.008622973343335616],[0.5177359940425958],676.0960072686084,None,[0 0 1 1 1 2 1 3],space,0,1.9826235494419961,0.0023490522653446533,None,676.1126438632155,None,1,678.0942831229358,None,None,678.5938525675857,None,,,,,,,,,,,,,,,,,,,,,,,,,,,,,,,,,,,,,,,,,,,,,,09_JXL,9,27,F,2022-11-29_14h15.30.527,dynamic target,2022.1.3,120.103923517558,
0,2,3,2,mix,0,127,127,127,,,,,,,None,679.6262931894327,None,678.6354839827,None,679.1183878083402,None,1,[0.008623935477771738],[0.5164464126164603],679.6262931894327,None,[3 1 0 3 1 2 3 1],space,0,2.589446496744131,0.003493992750918551,None,679.6346225512871,None,1,682.2240574766538,None,None,682.7236272420151,None,,,,,,,,,,,,,,,,,,,,,,,,,,,,,,,,,,,,,,,,,,,,,,09_JXL,9,27,F,2022-11-29_14h15.30.527,dynamic target,2022.1.3,120.103923517558,
0,3,1,2,mix,0,128,128,128,,,,,,,None,683.7477445955283,None,682.7736314754084,None,683.2481830083134,None,1,[0.008604372069385136],[0.5176805109322231],683.7477445955283,None,[1 2 0 3 2 0 3 1],space,0,2.0598634154366664,0.0024997867267302354,None,683.7643985085624,None,1,685.8292714137542,None,None,686.3288549697155,None,,,,,,,,,,,,,,,,,,,,,,,,,,,,,,,,,,,,,,,,,,,,,,09_JXL,9,27,F,2022-11-29_14h15.30.527,dynamic target,2022.1.3,120.103923517558,
1,4,1,2,mix,0,129,129,129,,,,,,,None,687.3612850080791,None,686.370479649886,None,686.8534046424929,None,1,[0.008727846042347664],[0.5164932365123605],687.3612850080791,None,[1 1 3 3 1 1 2 0],space,0,1.8145254399096302,0.003349351810356893,None,687.3696255948398,None,1,689.184728289908,None,None,689.684296451711,None,,,,,,,,,,,,,,,,,,,,,,,,,,,,,,,,,,,,,,,,,,,,,,09_JXL,9,27,F,2022-11-29_14h15.30.527,dynamic target,2022.1.3,120.103923517558,
1,3,1,1,mix,0,130,130,130,,,,,,,None,690.7084195780335,None,689.7342961951417,None,690.2088464452008,None,1,[0.008583205101786007],[0.5171359426003619],690.7084195780335,None,[0 1 2 0 0 1 0 2],space,0,2.185764534912778,0.0027249262848272338,None,690.7250699632405,None,1,692.9148561961165,None,None,693.4144176229757,None,,,,,,,,,,,,,,,,,,,,,,,,,,,,,,,,,,,,,,,,,,,,,,09_JXL,9,27,F,2022-11-29_14h15.30.527,dynamic target,2022.1.3,120.103923517558,
1,4,2,2,mix,0,131,131,131,,,,,,,None,694.4468797325009,None,693.4560516037827,None,693.9472839894988,None,1,[0.008706358364179323],[0.5089119345129802],694.4468797325009,None,[3 2 3 2 1 3 0 2],space,0,2.9353862555562955,0.002699269354707212,None,694.4551879273886,None,1,697.3943277659937,None,None,697.8938914378333,None,,,,,,,,,,,,,,,,,,,,,,,,,,,,,,,,,,,,,,,,,,,,,,09_JXL,9,27,F,2022-11-29_14h15.30.527,dynamic target,2022.1.3,120.103923517558,
0,2,1,0,mix,0,132,132,132,,,,,,,None,698.926335747864,None,697.9438988783431,None,698.4267581250688,None,1,[0.009277866472075402],[0.5175182308521471],698.926335747864,None,[3 1 1 3 0 2 0 0],space,0,2.1599251203524545,0.0026675189037632663,None,698.9430047343449,None,1,701.1077898928379,None,None,701.6073625446035,None,,,,,,,,,,,,,,,,,,,,,,,,,,,,,,,,,,,,,,,,,,,,,,09_JXL,9,27,F,2022-11-29_14h15.30.527,dynamic target,2022.1.3,120.103923517558,
1,3,2,2,mix,0,133,133,133,,,,,,,None,702.639803326806,None,701.649004543201,None,702.1402266661453,None,1,[0.008605654915299965],[0.5174563335094717],702.639803326806,None,[2 3 0 3 2 0 1 0],space,0,3.3898185863663457,0.002565532608969079,None,702.6564572398402,None,1,706.0452110378674,None,None,706.5447756718432,None,,,,,,,,,,,,,,,,,,,,,,,,,,,,,,,,,,,,,,,,,,,,,,09_JXL,9,27,F,2022-11-29_14h15.30.527,dynamic target,2022.1.3,120.103923517558,
1,4,3,2,mix,0,134,134,134,,,,,,,None,707.5772199818739,None,706.5947500790553,707.5938700463685,707.0776478111757,None,3,"[0.009009110134684306, 0.18370970980049606, 0.20825986364616256]","[0.03375040810533392, 0.20025233590331482, 0.708647924707293]",707.5772199818739,None,[1 3 0 0 1 0 1 2],space,0,1.7489251607621554,0.0028506452399597038,None,707.7853717657035,None,1,709.5338655435771,None,None,710.0334333846687,None,,,,,,,,,,,,,,,,,,,,,,,,,,,,,,,,,,,,,,,,,,,,,,09_JXL,9,27,F,2022-11-29_14h15.30.527,dynamic target,2022.1.3,120.103923517558,
0,5,1,2,mix,0,135,135,135,,,,,,,None,711.0658780154108,None,710.0750744211318,None,710.5663048825782,None,1,[0.008637726077722618],[0.5172283075471569],711.0658780154108,None,[0 3 1 1 1 1 1 1],space,0,3.3477296761257094,0.0029417273399303667,None,711.0825325698688,None,1,714.4296480574822,None,None,714.9292178228426,None,,,,,,,,,,,,,,,,,,,,,,,,,,,,,,,,,,,,,,,,,,,,,,09_JXL,9,27,F,2022-11-29_14h15.30.527,dynamic target,2022.1.3,120.103923517558,
1,6,4,2,mix,0,136,136,136,,,,,,,None,715.9533409491651,None,714.970851482939,None,715.4537662127741,None,1,[0.00865087525380659],[0.5169842460036307],715.9533409491651,None,[0 2 0 1 0 3 3 1],space,0,3.260187911453613,0.0030507692908940953,None,715.969986523698,None,1,719.2338629137421,None,None,719.7334111914244,None,,,,,,,,,,,,,,,,,,,,,,,,,,,,,,,,,,,,,,,,,,,,,,09_JXL,9,27,F,2022-11-29_14h15.30.527,dynamic target,2022.1.3,120.103923517558,
0,7,4,2,mix,0,137,137,137,,,,,,,None,720.765867528141,None,719.7834285739946,None,720.2662897449891,None,1,[0.008721111098566325],[0.5089860188973034],720.765867528141,None,[3 1 1 2 0 0 3 3],space,0,2.375079000995356,0.002830761119184899,None,720.7741830993955,None,1,723.1471383222806,None,None,723.6467064840837,None,,,,,,,,,,,,,,,,,,,,,,,,,,,,,,,,,,,,,,,,,,,,,,09_JXL,9,27,F,2022-11-29_14h15.30.527,dynamic target,2022.1.3,120.103923517558,
1,4,3,0,mix,0,138,138,138,,,,,,,None,724.6791523976726,None,723.6883427098719,724.6874767884965,724.1795824719557,None,2,"[0.00858994004647684, 0.8582066575891076]","[0.4667069266661201, 1.3585087679357457]",724.6791523976726,None,[3 1 2 0 3 1 1 3],space,0,1.3881351710697345,0.0025786817850530497,None,725.5367458546416,None,1,726.9272561902153,None,None,727.4267836216424,None,,,,,,,,,,,,,,,,,,,,,,,,,,,,,,,,,,,,,,,,,,,,,,09_JXL,9,27,F,2022-11-29_14h15.30.527,dynamic target,2022.1.3,120.103923517558,
0,1,3,0,mix,0,139,139,139,,,,,,,None,728.4592263281147,None,727.4684214509889,None,727.959658005956,None,1,[0.008643178174679633],[0.517760368124982],728.4592263281147,None,[2 3 0 1 2 2 1 0],space,0,2.0486340187526366,0.0024125531654135557,None,728.4758882589404,None,1,730.5241155895992,None,None,731.0236843928261,None,,,,,,,,,,,,,,,,,,,,,,,,,,,,,,,,,,,,,,,,,,,,,,09_JXL,9,27,F,2022-11-29_14h15.30.527,dynamic target,2022.1.3,120.103923517558,
0,2,4,2,mix,0,140,140,140,,,,,,,None,732.0478049534549,None,731.0736706663683,None,731.5482334241806,None,1,[0.008665948700581794],[0.5171080406889814],732.0478049534549,None,[3 3 1 3 2 1 3 0],space,0,2.7012513783602117,0.003084123299231578,None,732.0644556593734,None,1,734.7704436018994,None,None,735.2700258750139,None,,,,,,,,,,,,,,,,,,,,,,,,,,,,,,,,,,,,,,,,,,,,,,09_JXL,9,27,F,2022-11-29_14h15.30.527,dynamic target,2022.1.3,120.103923517558,
1,1,4,1,mix,0,141,141,141,,,,,,,None,736.3024570358675,None,735.3116749292667,736.3107961794267,735.8029018628858,None,2,"[0.00861880409229343, 0.7094291782150322]","[0.49145848740863585, 1.2166455103906628]",736.3024570358675,None,[3 3 3 2 0 0 0 1],space,0,1.6664881629558295,0.002841986025487131,None,737.0185239824941,None,0,738.6920793209638,None,None,739.1916484449013,None,,,,,,,,,,,,,,,,,,,,,,,,,,,,,,,,,,,,,,,,,,,,,,09_JXL,9,27,F,2022-11-29_14h15.30.527,dynamic target,2022.1.3,120.103923517558,
1,8,4,1,mix,0,142,142,142,,,,,,,None,740.2240927549319,None,739.2332721629373,740.2324184286026,739.7245318091409,None,2,"[0.00862906686415954, 0.16672097383434448]","[0.02576597159895755, 0.6671622730245872]",740.2240927549319,None,[3 2 3 2 3 1 3 3],space,0,2.0056775835773806,0.0027929171483265236,None,740.3906232260642,None,1,742.4055465791935,None,None,742.9051221173642,None,,,,,,,,,,,,,,,,,,,,,,,,,,,,,,,,,,,,,,,,,,,,,,09_JXL,9,27,F,2022-11-29_14h15.30.527,dynamic target,2022.1.3,120.103923517558,
1,1,4,2,mix,0,143,143,143,,,,,,,None,743.929233056645,None,742.93842048244,None,743.4296708280071,None,1,[0.00866274158397573],[0.5169409499349058],743.929233056645,None,[1 2 2 3 3 3 1 0],space,0,3.0595859998848027,0.0032008623293222627,None,743.9458850454093,None,1,747.0099135169048,None,None,747.5094836029767,None,,,,,,,,,,,,,,,,,,,,,,,,,,,,,,,,,,,,,,,,,,,,,,09_JXL,9,27,F,2022-11-29_14h15.30.527,dynamic target,2022.1.3,120.103923517558,
0,8,1,1,mix,0,144,144,144,,,,,,,None,748.5336015979137,None,747.559446464571,None,748.0340319929082,None,1,[0.00870860334543977],[0.5176240656865048],748.5336015979137,None,[3 3 3 3 0 3 0 0],space,0,2.8050666920835283,0.002606904407912225,None,748.5502600009113,None,1,751.3561691766627,None,None,751.8557376591772,None,,,,,,,,,,,,,,,,,,,,,,,,,,,,,,,,,,,,,,,,,,,,,,09_JXL,9,27,F,2022-11-29_14h15.30.527,dynamic target,2022.1.3,120.103923517558,
0,1,4,2,mix,0,145,145,145,,,,,,,None,752.888180044938,None,751.8973610565008,None,752.3886142884721,None,1,[0.008683587840096152],[0.5178854456580666],752.888180044938,None,[2 3 3 2 2 1 0 0],space,0,2.1144337805280884,0.002289079191541532,None,752.9048355615305,None,1,755.0196997112953,None,None,755.5192473475546,None,,,,,,,,,,,,,,,,,,,,,,,,,,,,,,,,,,,,,,,,,,,,,,09_JXL,9,27,F,2022-11-29_14h15.30.527,dynamic target,2022.1.3,120.103923517558,
0,2,1,2,mix,0,146,146,146,,,,,,,None,756.5516916575853,None,755.5692685786635,None,756.0521223732921,None,1,[0.008991470995169948],[0.5176173307427234],756.5516916575853,None,[2 1 2 2 3 0 0 0],space,0,1.2508779738200246,0.002544686353758152,None,756.5683693032797,None,1,757.8172703849114,None,None,758.3168103240924,None,,,,,,,,,,,,,,,,,,,,,,,,,,,,,,,,,,,,,,,,,,,,,,09_JXL,9,27,F,2022-11-29_14h15.30.527,dynamic target,2022.1.3,120.103923517558,
0,3,3,2,mix,0,147,147,147,,,,,,,None,759.3409559002275,None,758.3668491943408,None,758.8413882194927,None,1,[0.00860693776212429],[0.5173918704740572],759.3409559002275,None,[0 2 1 1 3 0 0 0],space,0,1.5343665208874882,0.0029568007857960765,None,759.3576091718396,None,1,760.8896232472307,None,None,761.3891926918806,None,,,,,,,,,,,,,,,,,,,,,,,,,,,,,,,,,,,,,,,,,,,,,,09_JXL,9,27,F,2022-11-29_14h15.30.527,dynamic target,2022.1.3,120.103923517558,
0,4,1,2,mix,0,148,148,148,,,,,,,None,762.4133321744957,None,761.4308273141105,None,761.9137635316247,None,1,[0.008708603346349264],[0.517533625010401],762.4133321744957,None,[3 1 3 2 1 3 1 1],space,0,2.1574697521846247,0.002696382950489351,None,762.429962034158,None,1,764.5864369131377,None,None,765.0860066784991,None,,,,,,,,,,,,,,,,,,,,,,,,,,,,,,,,,,,,,,,,,,,,,,09_JXL,9,27,F,2022-11-29_14h15.30.527,dynamic target,2022.1.3,120.103923517558,
0,3,3,1,mix,0,149,149,149,,,,,,,None,766.1184498660388,None,765.1276432249988,None,765.6106012509035,None,1,[0.008656648063151806],[0.5164326220165094],766.1184498660388,None,[0 1 0 2 0 3 0 2],space,0,1.9169453373715442,0.003229084952181438,None,766.1267760207775,None,1,768.041795138397,None,None,768.5413607345064,None,,,,,,,,,,,,,,,,,,,,,,,,,,,,,,,,,,,,,,,,,,,,,,09_JXL,9,27,F,2022-11-29_14h15.30.527,dynamic target,2022.1.3,120.103923517558,
1,4,1,2,mix,0,150,150,150,,,,,,,None,769.5738088930766,None,768.5913899834068,None,769.0742370430899,None,1,[0.007870263169934333],[0.5166779664059504],769.5738088930766,None,[1 2 1 0 1 0 2 3],space,0,2.068738788824703,0.0028394203327479772,None,769.5904599197065,None,1,771.663677099843,None,None,772.163239809549,None,,,,,,,,,,,,,,,,,,,,,,,,,,,,,,,,,,,,,,,,,,,,,,09_JXL,9,27,F,2022-11-29_14h15.30.527,dynamic target,2022.1.3,120.103923517558,
0,5,3,2,mix,0,151,151,151,,,,,,,None,773.1956860438495,None,772.2048805252998,None,772.6961404922158,None,1,[0.008687115667271428],[0.5177985328082286],773.1956860438495,None,[0 0 1 0 2 2 3 3],space,0,1.6295909324298918,0.002319867508049356,None,773.2123377119024,None,1,774.8442880939656,None,None,775.3438382959185,None,,,,,,,,,,,,,,,,,,,,,,,,,,,,,,,,,,,,,,,,,,,,,,09_JXL,9,27,F,2022-11-29_14h15.30.527,dynamic target,2022.1.3,120.103923517558,
1,6,3,2,mix,0,152,152,152,,,,,,,None,776.3762858130649,None,775.3854735595723,None,775.8767107559624,None,1,[0.00896709691187425],[0.5176830766249623],776.3762858130649,None,[2 0 0 1 0 2 0 2],space,0,1.8092099655095808,0.0022159569425639347,None,776.3929365189833,None,1,778.2080366483588,None,None,778.7076038480265,None,,,,,,,,,,,,,,,,,,,,,,,,,,,,,,,,,,,,,,,,,,,,,,09_JXL,9,27,F,2022-11-29_14h15.30.527,dynamic target,2022.1.3,120.103923517558,
0,7,3,2,mix,0,153,153,153,,,,,,,None,779.7400606658102,None,778.7492423187969,None,779.2404782323401,None,1,[0.008590260757046053],[0.5176487604812792],779.7400606658102,None,[0 3 2 0 2 2 1 0],space,0,1.5969113804258086,0.002559118376666447,None,779.756712975287,None,1,781.3553241015425,None,None,781.8549002811361,None,,,,,,,,,,,,,,,,,,,,,,,,,,,,,,,,,,,,,,,,,,,,,,09_JXL,9,27,F,2022-11-29_14h15.30.527,dynamic target,2022.1.3,120.103923517558,
0,8,3,2,mix,0,154,154,154,,,,,,,None,782.8873365733762,None,781.8965310548274,None,782.3877720997571,None,1,[0.009082232383661903],[0.5176192550125052],782.8873365733762,None,[2 3 1 0 1 0 3 3],space,0,1.8578872545731429,0.0025645704754424514,None,782.9039892035644,None,1,784.7607218705443,None,None,785.2602900323474,None,,,,,,,,,,,,,,,,,,,,,,,,,,,,,,,,,,,,,,,,,,,,,,09_JXL,9,27,F,2022-11-29_14h15.30.527,dynamic target,2022.1.3,120.103923517558,
0,1,4,2,mix,0,155,155,155,,,,,,,None,786.284393915972,None,785.3019698749158,None,785.7848393844133,None,1,[0.00907774242114101],[0.5174220173657886],786.284393915972,None,[0 1 3 0 1 1 3 2],space,0,2.156552837662275,0.0024831097216519993,None,786.3010481497186,None,1,788.4575364985858,None,None,788.9571065846586,None,,,,,,,,,,,,,,,,,,,,,,,,,,,,,,,,,,,,,,,,,,,,,,09_JXL,9,27,F,2022-11-29_14h15.30.527,dynamic target,2022.1.3,120.103923517558,
0,8,3,1,mix,0,156,156,156,,,,,,,None,789.9812319559624,None,788.9987681466655,None,789.48164310826,None,1,[0.008660496602715284],[0.5170301077650947],789.9812319559624,None,[3 1 2 2 3 1 2 2],space,0,1.5641821181197884,0.003138644274258695,None,789.9978768890714,None,1,791.5632003940909,None,None,792.0627647073544,None,,,,,,,,,,,,,,,,,,,,,,,,,,,,,,,,,,,,,,,,,,,,,,09_JXL,9,27,F,2022-11-29_14h15.30.527,dynamic target,2022.1.3,120.103923517558,
0,1,2,2,mix,0,157,157,157,,,,,,,None,793.0952176765986,None,792.1127910698488,793.1118747967494,792.5956381295327,None,2,"[0.00868679495579272, 0.78367872905892]","[0.5080979684207705, 1.2915505957862479]",793.0952176765986,None,[0 3 1 2 2 0 0 0],space,0,2.379454148923287,0.002827874714967038,None,793.8861970849885,None,1,796.2674904892974,None,None,796.7670490297515,None,,,,,,,,,,,,,,,,,,,,,,,,,,,,,,,,,,,,,,,,,,,,,,09_JXL,9,27,F,2022-11-29_14h15.30.527,dynamic target,2022.1.3,120.103923517558,
1,2,4,2,mix,0,158,158,158,,,,,,,None,797.7911894745012,None,796.8086836519815,797.8078007328904,797.2916266044404,None,1,[0.15012767529606208],[0.6501927797553435],797.7911894745012,None,[2 1 1 0 1 2 3 2],space,0,2.58082705122888,0.0031864303064139676,None,797.9410352442828,None,1,800.5221438545559,None,None,801.0217232412662,None,,,,,,,,,,,,,,,,,,,,,,,,,,,,,,,,,,,,,,,,,,,,,,09_JXL,9,27,F,2022-11-29_14h15.30.527,dynamic target,2022.1.3,120.103923517558,
1,3,4,2,mix,0,159,159,159,,,,,,,None,802.0541412529437,None,801.0633552978034,None,801.5545908906352,None,1,[0.008631632556898694],[0.5178655615372918],802.0541412529437,None,[1 0 3 0 0 1 0 3],space,0,1.5859068025874876,0.0022890791924510268,None,802.0708086358663,None,1,803.6611094826085,None,None,804.1606741165843,None,,,,,,,,,,,,,,,,,,,,,,,,,,,,,,,,,,,,,,,,,,,,,,09_JXL,9,27,F,2022-11-29_14h15.30.527,dynamic target,2022.1.3,120.103923517558,
0,4,4,2,mix,0,160,160,160,,,,,,,None,805.1931184266141,None,804.2106504480662,None,804.693548500898,None,1,[0.007834022756469494],[0.5167757834506119],805.1931184266141,None,[0 2 0 2 0 1 0 0],space,0,1.2469880625731093,0.002654690439158003,None,805.2097986380022,None,1,806.4586961918058,None,None,806.9582633914744,None,,,,,,,,,,,,,,,,,,,,,,,,,,,,,,,,,,,,,,,,,,,,,,09_JXL,9,27,F,2022-11-29_14h15.30.527,dynamic target,2022.1.3,120.103923517558,
1,5,3,2,mix,0,161,161,161,,,,,,,None,807.990707701505,None,806.9999002586865,None,807.491147397137,None,1,[0.008637726077722618],[0.5174422221980421],807.990707701505,None,[1 2 1 2 2 2 1 1],space,0,1.7135548382611887,0.002581888901659113,None,808.0073587281349,None,1,809.7225472456321,None,None,810.2221093139143,None,,,,,,,,,,,,,,,,,,,,,,,,,,,,,,,,,,,,,,,,,,,,,,09_JXL,9,27,F,2022-11-29_14h15.30.527,dynamic target,2022.1.3,120.103923517558,
0,6,4,2,mix,0,162,162,162,,,,,,,None,811.2462446272784,None,810.2637503503774,None,810.7466644387896,None,1,[0.008745485182771517],[0.5171417154097071],811.2462446272784,None,[3 3 3 0 1 3 2 2],space,0,1.6736371456918278,0.0028888099222967867,None,811.2628738455187,None,1,812.9364458609925,None,None,813.436015626353,None,,,,,,,,,,,,,,,,,,,,,,,,,,,,,,,,,,,,,,,,,,,,,,09_JXL,9,27,F,2022-11-29_14h15.30.527,dynamic target,2022.1.3,120.103923517558,
0,7,2,2,mix,0,163,163,163,,,,,,,None,814.4684514375259,None,813.4776537764119,None,813.9688900106667,None,1,[0.008687115667271428],[0.5088125139109252],814.4684514375259,None,[1 2 0 2 1 0 1 0],space,0,1.8521243874629363,0.002988230525261315,None,814.4767852893428,None,1,816.3335208427279,None,None,816.8330883631071,None,,,,,,,,,,,,,,,,,,,,,,,,,,,,,,,,,,,,,,,,,,,,,,09_JXL,9,27,F,2022-11-29_14h15.30.527,dynamic target,2022.1.3,120.103923517558,
0,8,2,2,mix,0,164,164,164,,,,,,,None,817.8655326731377,None,816.8747220232026,None,817.3659643509791,None,1,[0.00864414031002525],[0.5178235483144817],817.8655326731377,None,[0 2 0 0 0 3 3 3],space,0,2.189825064740944,0.0023904240642877994,None,817.8822058288697,None,1,820.071975705453,None,None,820.5715342459081,None,,,,,,,,,,,,,,,,,,,,,,,,,,,,,,,,,,,,,,,,,,,,,,09_JXL,9,27,F,2022-11-29_14h15.30.527,dynamic target,2022.1.3,120.103923517558,
1,1,1,2,mix,0,165,165,165,,,,,,,None,821.6039933086731,None,820.6131602089245,None,821.1044233829562,None,1,[0.008669155816278362],[0.5176375355749769],821.6039933086731,None,[1 0 3 1 0 2 0 2],space,0,2.1789522993785795,0.002591830962046515,None,821.6206302239916,None,1,823.802089500351,None,None,824.3016534929021,None,,,,,,,,,,,,,,,,,,,,,,,,,,,,,,,,,,,,,,,,,,,,,,09_JXL,9,27,F,2022-11-29_14h15.30.527,dynamic target,2022.1.3,120.103923517558,
1,2,3,2,mix,0,166,166,166,,,,,,,None,825.3340994064911,None,824.3432871529985,None,824.8345368571418,None,1,[0.008584808660089038],[0.5170349184400038],825.3340994064911,None,[2 0 0 0 1 0 1 1],space,0,2.8817494819923013,0.0031040074200063827,None,825.350754602372,None,1,828.2316002932585,None,None,828.7311700586198,None,,,,,,,,,,,,,,,,,,,,,,,,,,,,,,,,,,,,,,,,,,,,,,09_JXL,9,27,F,2022-11-29_14h15.30.527,dynamic target,2022.1.3,120.103923517558,
1,3,3,2,mix,0,167,167,167,,,,,,,None,829.7552973541933,None,828.772806284408,None,829.2557271077649,None,1,[0.008445299105005688],[0.5170769316619044],829.7552973541933,None,[3 2 1 1 2 2 0 3],space,0,1.659819606228666,0.002917994680501579,None,829.7719416458795,None,1,831.428839543486,None,None,831.9284154023682,None,,,,,,,,,,,,,,,,,,,,,,,,,,,,,,,,,,,,,,,,,,,,,,09_JXL,9,27,F,2022-11-29_14h15.30.527,dynamic target,2022.1.3,120.103923517558,
0,6,1,0,mix,0,168,168,168,,,,,,,None,832.9608606745333,None,831.9783968652364,None,832.4612904281048,None,1,[0.009525135132207652],[0.5175724311156955],832.9608606745333,None,[2 1 3 1 0 1 0 0],space,0,1.413560867639717,0.002748979655734729,None,832.9775168325496,None,1,834.3929612137781,None,None,834.892539638353,None,,,,,,,,,,,,,,,,,,,,,,,,,,,,,,,,,,,,,,,,,,,,,,09_JXL,9,27,F,2022-11-29_14h15.30.527,dynamic target,2022.1.3,120.103923517558,
0,7,3,2,mix,0,169,169,169,,,,,,,None,835.9249711199191,None,834.9341749020068,None,835.4253896485834,None,1,[0.00861046559020906],[0.5176138029155481],835.9249711199191,None,[2 2 3 3 0 1 3 3],space,0,1.921030241283006,0.002549176316279045,None,835.9416356164365,None,1,837.8649691828205,None,None,838.3645373446235,None,,,,,,,,,,,,,,,,,,,,,,,,,,,,,,,,,,,,,,,,,,,,,,09_JXL,9,27,F,2022-11-29_14h15.30.527,dynamic target,2022.1.3,120.103923517558,
1,8,1,2,mix,0,170,170,170,,,,,,,None,839.3886546981366,None,838.3978578388014,None,838.8890748303593,None,1,[0.009129697703428974],[0.5174900082292879],839.3886546981366,None,[0 3 2 0 1 2 3 3],space,0,2.3771854349197383,0.0025584769537090324,None,839.4053076490363,None,1,841.7865927148432,None,None,842.2861579902411,None,,,,,,,,,,,,,,,,,,,,,,,,,,,,,,,,,,,,,,,,,,,,,,09_JXL,9,27,F,2022-11-29_14h15.30.527,dynamic target,2022.1.3,120.103923517558,
0,1,4,2,mix,0,171,171,171,,,,,,,None,843.3186010174259,None,842.3361740899645,None,842.8190326952672,None,1,[0.009443995091714896],[0.5175528677063994],843.3186010174259,None,[0 3 1 1 2 2 0 3],space,0,2.09530686018752,0.0026421826869409415,None,843.3352725695995,None,1,845.4334468866282,None,None,845.9330160105657,None,,,,,,,,,,,,,,,,,,,,,,,,,,,,,,,,,,,,,,,,,,,,,,09_JXL,9,27,F,2022-11-29_14h15.30.527,dynamic target,2022.1.3,120.103923517558,
0,4,4,0,mix,0,172,172,172,,,,,,,None,846.9571407404464,None,845.9663246384134,None,846.4575727389993,None,1,[0.008636443230898294],[0.5175871838500825],846.9571407404464,None,[0 2 0 3 2 0 3 2],space,0,1.4321316740297334,0.002460018486090121,None,846.9737875978253,None,1,848.4058865335119,None,None,848.9054553367379,None,,,,,,,,,,,,,,,,,,,,,,,,,,,,,,,,,,,,,,,,,,,,,,09_JXL,9,27,F,2022-11-29_14h15.30.527,dynamic target,2022.1.3,120.103923517558,
0,5,3,2,mix,0,173,173,173,,,,,,,None,849.9295765387906,None,848.9470870725636,None,849.4300098201902,None,1,[0.008618483380814723],[0.5170179207243564],849.9295765387906,None,[2 3 1 0 2 1 3 2],space,0,1.5166119255709418,0.00315243487511907,None,849.946250015234,None,1,851.4615819549681,None,None,851.9611546067337,None,,,,,,,,,,,,,,,,,,,,,,,,,,,,,,,,,,,,,,,,,,,,,,09_JXL,9,27,F,2022-11-29_14h15.30.527,dynamic target,2022.1.3,120.103923517558,
1,6,2,2,mix,0,174,174,174,,,,,,,None,852.9935852865211,None,852.0027911532343,None,852.4940389331077,None,1,[0.008646064579806989],[0.5087419573537773],852.9935852865211,None,[1 2 0 3 1 1 2 0],space,0,2.3165135312456187,0.0029244089128042106,None,853.0019255525704,None,1,855.3165997769129,None,None,855.8161618451951,None,,,,,,,,,,,,,,,,,,,,,,,,,,,,,,,,,,,,,,,,,,,,,,09_JXL,9,27,F,2022-11-29_14h15.30.527,dynamic target,2022.1.3,120.103923517558,
1,7,2,2,mix,0,175,175,175,,,,,,,None,856.8486327742903,None,855.8578032023697,None,856.3490410401837,None,1,[0.008816041739009961],[0.5175801281948225],856.8486327742903,None,[3 3 3 3 2 0 3 0],space,0,2.931992805898517,0.00243788938405487,None,856.8652793109577,None,1,859.7960745539067,None,None,860.2956414328629,None,,,,,,,,,,,,,,,,,,,,,,,,,,,,,,,,,,,,,,,,,,,,,,09_JXL,9,27,F,2022-11-29_14h15.30.527,dynamic target,2022.1.3,120.103923517558,
0,8,3,2,mix,0,176,176,176,,,,,,,None,861.3280931192603,None,860.3372696408605,None,860.8285171000234,None,1,[0.008645102445370867],[0.5176263106686747],861.3280931192603,None,[0 3 1 2 2 0 2 3],space,0,2.084811251692372,0.0025007488611663575,None,861.3447447873141,None,1,863.4346052970013,None,None,863.9341830801533,None,,,,,,,,,,,,,,,,,,,,,,,,,,,,,,,,,,,,,,,,,,,,,,09_JXL,9,27,F,2022-11-29_14h15.30.527,dynamic target,2022.1.3,120.103923517558,
0,7,1,1,mix,0,177,177,177,,,,,,,None,864.9666180895465,None,863.9757955732821,None,864.4670507295232,None,1,[0.008661458738060901],[0.5175150237364505],864.9666180895465,None,[3 3 2 0 2 0 3 2],space,0,1.901804862474819,0.0026027351568700396,None,864.9832707197347,None,1,866.889959673721,None,None,867.3895297597938,None,,,,,,,,,,,,,,,,,,,,,,,,,,,,,,,,,,,,,,,,,,,,,,09_JXL,9,27,F,2022-11-29_14h15.30.527,dynamic target,2022.1.3,120.103923517558,
0,8,4,2,mix,0,178,178,178,,,,,,,None,868.413646471884,None,867.4228265213114,None,867.9140775083015,None,1,[0.009113662123127142],[0.517572431116605],868.413646471884,None,[1 2 0 0 0 3 1 0],space,0,4.5344136654957765,0.0026081872547365492,None,868.430315458364,None,1,872.9680773274204,None,None,873.4676246429682,None,,,,,,,,,,,,,,,,,,,,,,,,,,,,,,,,,,,,,,,,,,,,,,09_JXL,9,27,F,2022-11-29_14h15.30.527,dynamic target,2022.1.3,120.103923517558,
1,1,2,2,mix,0,179,179,179,,,,,,,None,874.5000694340662,None,873.5092531716773,None,874.00050255511,None,1,[0.008632594691334816],[0.5089796046650008],874.5000694340662,None,[3 2 1 0 3 2 2 3],space,0,2.6811844522590036,0.0028397410442266846,None,874.50839077813,None,1,877.1894337708054,None,space,877.6973021097056,None,0.6485013724268356,,,,,,,,,,,,,,,,,,,,,,,,,,,,,,,,,,,,,,,,,,,,,09_JXL,9,27,F,2022-11-29_14h15.30.527,dynamic target,2022.1.3,120.103923517558,
1,2,2,2,mix,0,180,180,180,,,,,,,None,879.3791981952918,None,878.3966981455815,879.3958501840561,878.8796369287884,None,2,"[0.008614634841251245, 0.2671300094352773]","[0.07655610881920438, 0.7671450828820525]",879.3791981952918,None,[0 1 1 2 1 3 2 3],space,0,2.647162080698763,0.002694458680707612,None,879.645636429761,None,1,882.2933526743818,None,None,882.792924364013,None,,,,,,,,,,,,,,,,,,,,,,,,,,,,,,,,,,,,,,,,,,,,,,09_JXL,9,27,F,2022-11-29_14h15.30.527,dynamic target,2022.1.3,120.103923517558,
0,7,3,0,mix,0,181,181,181,,,,,,,None,883.8253859924707,None,882.8345506477417,None,883.3258048418475,None,1,[0.008631632556898694],[0.5176763416811809],883.8253859924707,None,[0 3 2 3 2 2 0 0],space,0,5.169557052453456,0.0023724642132947338,None,883.8420280391756,None,1,889.0125497664258,None,None,889.5121333223861,None,,,,,,,,,,,,,,,,,,,,,,,,,,,,,,,,,,,,,,,,,,,,,,09_JXL,9,27,F,2022-11-29_14h15.30.527,dynamic target,2022.1.3,120.103923517558,
1,8,2,2,mix,0,182,182,182,,,,,,,None,890.53625260017,None,889.5537733967149,None,890.0366929372249,None,1,[0.008631632556898694],[0.5172170826408546],890.53625260017,None,[0 0 1 2 2 2 2 2],space,0,1.947469065862606,0.0030020211252121953,None,890.5529106824551,None,1,892.5012110070793,None,None,893.0007942423282,None,,,,,,,,,,,,,,,,,,,,,,,,,,,,,,,,,,,,,,,,,,,,,,09_JXL,9,27,F,2022-11-29_14h15.30.527,dynamic target,2022.1.3,120.103923517558,
1,1,3,2,mix,0,183,183,183,,,,,,,None,894.033245608015,None,893.0424375237726,None,893.5336567603126,None,1,[0.008728808177693281],[0.5176721724301387],894.033245608015,None,[2 1 0 2 1 2 2 3],space,0,1.5543481376971613,0.002550459163103369,None,894.0498902204126,None,1,895.6069085773042,None,None,896.1064465922146,None,,,,,,,,,,,,,,,,,,,,,,,,,,,,,,,,,,,,,,,,,,,,,,09_JXL,9,27,F,2022-11-29_14h15.30.527,dynamic target,2022.1.3,120.103923517558,
0,2,1,2,mix,0,184,184,184,,,,,,,None,897.1388953922078,None,896.1564335071807,None,896.6393241836449,None,1,[0.008657610198497423],[0.517609633664506],897.1388953922078,None,[3 3 2 3 1 2 2 2],space,0,3.1681411106492305,0.0026133186402148567,None,897.1555457774148,None,1,900.3278221179407,None,None,900.8273886761864,None,,,,,,,,,,,,,,,,,,,,,,,,,,,,,,,,,,,,,,,,,,,,,,09_JXL,9,27,F,2022-11-29_14h15.30.527,dynamic target,2022.1.3,120.103923517558,
1,3,1,2,mix,0,185,185,185,,,,,,,None,901.8515041054297,None,900.8690165634725,901.8681535285014,901.3519319347315,None,2,"[0.00863868821215874, 0.2341727211678517]","[0.10046131159469951, 0.7420266280441865]",901.8515041054297,None,[0 2 2 1 1 0 0 2],space,0,1.7987050563770026,0.0028102355754526798,None,902.0929653188869,None,1,903.8914099316689,None,None,904.3909796970303,None,,,,,,,,,,,,,,,,,,,,,,,,,,,,,,,,,,,,,,,,,,,,,,09_JXL,9,27,F,2022-11-29_14h15.30.527,dynamic target,2022.1.3,120.103923517558,
1,4,1,2,mix,0,186,186,186,,,,,,,None,905.4234244881283,None,904.4326152813956,None,904.9155290490962,None,1,[0.00872239394539065],[0.5165272319436554],905.4234244881283,None,[1 2 1 0 1 3 0 3],space,0,1.7888560025085098,0.0035376095311221434,None,905.4317586606567,None,1,907.2218811275961,None,None,907.7214441580137,None,,,,,,,,,,,,,,,,,,,,,,,,,,,,,,,,,,,,,,,,,,,,,,09_JXL,9,27,F,2022-11-29_14h15.30.527,dynamic target,2022.1.3,120.103923517558,
0,3,4,1,mix,0,187,187,187,,,,,,,None,908.7455605493915,None,907.7630810252249,None,908.2459928686567,None,1,[0.008633556826680433],[0.5170214485524411],908.7455605493915,None,[2 2 2 3 1 1 0 3],space,0,1.6577176622677143,0.0030889339732311782,None,908.7622125381567,None,1,910.4191232642288,None,None,910.9186750697392,None,,,,,,,,,,,,,,,,,,,,,,,,,,,,,,,,,,,,,,,,,,,,,,09_JXL,9,27,F,2022-11-29_14h15.30.527,dynamic target,2022.1.3,120.103923517558,
1,4,4,2,mix,0,188,188,188,,,,,,,None,911.9428062138522,None,910.9687104121595,None,911.4432366088467,None,1,[0.008648309561067435],[0.5179085368936285],911.9428062138522,None,[3 3 3 1 2 1 3 2],space,0,1.7549494078430143,0.002280740690366656,None,911.9594585233281,None,1,913.7162850305285,None,None,914.2158467780993,None,,,,,,,,,,,,,,,,,,,,,,,,,,,,,,,,,,,,,,,,,,,,,,09_JXL,9,27,F,2022-11-29_14h15.30.527,dynamic target,2022.1.3,120.103923517558,
1,5,3,2,mix,0,189,189,189,,,,,,,None,915.2482963798712,None,914.2658657642269,None,914.7487323873193,None,1,[0.008655044504848775],[0.5090219385992896],915.2482963798712,None,[0 0 1 1 3 2 1 2],space,0,1.3545656443175176,0.0028259504442758043,None,915.2566299109767,None,1,916.6137827101802,None,None,917.1133499098479,None,,,,,,,,,,,,,,,,,,,,,,,,,,,,,,,,,,,,,,,,,,,,,,09_JXL,9,27,F,2022-11-29_14h15.30.527,dynamic target,2022.1.3,120.103923517558,
0,4,1,1,mix,0,190,190,190,,,,,,,None,918.1457955027254,None,917.1549906255996,None,917.646224614874,None,1,[0.008643178175589128],[0.5177616509718064],918.1457955027254,None,[2 0 2 3 1 1 3 0],space,0,3.104366642757668,0.002575474669356481,None,918.1624340216022,None,1,921.2680902200273,None,None,921.7676728138532,None,,,,,,,,,,,,,,,,,,,,,,,,,,,,,,,,,,,,,,,,,,,,,,09_JXL,9,27,F,2022-11-29_14h15.30.527,dynamic target,2022.1.3,120.103923517558,
1,5,3,2,mix,0,191,191,191,,,,,,,None,922.8001225759817,None,921.8093093603538,None,922.3005212205262,None,1,[0.008676211471538409],[0.5177497846416372],922.8001225759817,None,[1 3 2 3 3 0 0 0],space,0,2.353784390810688,0.0025183880015902105,None,922.8167774511512,None,1,925.1730787610013,None,None,925.6726523749022,None,,,,,,,,,,,,,,,,,,,,,,,,,,,,,,,,,,,,,,,,,,,,,,09_JXL,9,27,F,2022-11-29_14h15.30.527,dynamic target,2022.1.3,120.103923517558,
1,6,1,2,mix,0,192,192,192,,,,,,,None,926.7050857807371,None,925.7142969391925,926.7134127372547,926.2055367012754,None,2,"[0.00861046559020906, 0.9251590569283508]","[0.5174053403616199, 1.4331018009243053]",926.7050857807371,None,[3 2 2 0 0 3 1 1],space,0,1.773077952910171,0.0028140841150161577,None,927.6376090178974,None,1,929.4110868724392,None,None,929.9106556756661,None,,,,,,,,,,,,,,,,,,,,,,,,,,,,,,,,,,,,,,,,,,,,,,09_JXL,9,27,F,2022-11-29_14h15.30.527,dynamic target,2022.1.3,120.103923517558,
0,5,4,1,mix,0,193,193,193,,,,,,,None,930.9431003064083,None,929.9606672854261,None,930.4435300599798,None,1,[0.009434053031327494],[0.5178094370030522],930.9431003064083,None,[3 0 3 2 1 2 0 1],space,0,1.2981822964347884,0.002327885298655019,None,930.95976159581,None,1,932.2586340378939,None,None,932.7582025204084,None,,,,,,,,,,,,,,,,,,,,,,,,,,,,,,,,,,,,,,,,,,,,,,09_JXL,9,27,F,2022-11-29_14h15.30.527,dynamic target,2022.1.3,120.103923517558,
1,6,2,2,mix,0,194,194,194,,,,,,,None,933.782329174559,None,932.8082102816297,None,933.2827518724753,None,1,[0.00891129309002281],[0.5175804489063012],933.782329174559,None,[3 1 2 2 2 1 1 2],space,0,1.5629034408875668,0.0026104322359969956,None,933.7989741076681,None,1,935.3642918398782,None,None,935.8638600016803,None,,,,,,,,,,,,,,,,,,,,,,,,,,,,,,,,,,,,,,,,,,,,,,09_JXL,9,27,F,2022-11-29_14h15.30.527,dynamic target,2022.1.3,120.103923517558,
1,7,1,2,mix,0,195,195,195,,,,,,,None,936.8963033495766,None,935.9054946239112,None,936.3967414416502,None,1,[0.008634198249637848],[0.5178277175655239],936.8963033495766,None,[0 2 3 1 1 0 3 1],space,0,1.9365311960418694,0.0023666914048590115,None,936.9129668839596,None,1,938.8529521183964,None,None,939.3525196387765,None,,,,,,,,,,,,,,,,,,,,,,,,,,,,,,,,,,,,,,,,,,,,,,09_JXL,9,27,F,2022-11-29_14h15.30.527,dynamic target,2022.1.3,120.103923517558,
0,8,2,2,mix,0,196,196,196,,,,,,,None,940.3849694009041,None,939.402529644979,None,939.8854203214432,None,1,[0.008634839673504757],[0.5175361907031402],940.3849694009041,None,[0 3 1 2 1 0 0 0],space,0,2.04746855272424,0.0026659153454602347,None,940.4016457637526,None,1,942.4498522481563,None,None,942.9494290691729,None,,,,,,,,,,,,,,,,,,,,,,,,,,,,,,,,,,,,,,,,,,,,,,09_JXL,9,27,F,2022-11-29_14h15.30.527,dynamic target,2022.1.3,120.103923517558,
0,7,1,1,mix,0,197,197,197,,,,,,,None,943.9818650407015,None,942.9910640121152,None,943.4822983221011,None,1,[0.008640291770461772],[0.5178687686529884],943.9818650407015,None,[3 3 1 1 3 3 3 1],space,0,2.081898548753088,0.0023432794559994363,None,943.9985189537365,None,1,946.0800573175811,None,None,946.5796270829416,None,,,,,,,,,,,,,,,,,,,,,,,,,,,,,,,,,,,,,,,,,,,,,,09_JXL,9,27,F,2022-11-29_14h15.30.527,dynamic target,2022.1.3,120.103923517558,
1,6,1,1,mix,0,198,198,198,,,,,,,None,947.6120713929722,None,946.6212604223256,None,947.1125024293906,None,1,[0.008657289487018716],[0.5179207239361858],947.6120713929722,None,[1 3 0 0 0 1 0 2],space,0,2.340534831628247,0.0021899793009652058,None,947.628705101175,None,1,949.9683739856691,None,None,950.4679277154493,None,,,,,,,,,,,,,,,,,,,,,,,,,,,,,,,,,,,,,,,,,,,,,,09_JXL,9,27,F,2022-11-29_14h15.30.527,dynamic target,2022.1.3,120.103923517558,
0,2,2,0,mix,0,199,199,199,,,,,,,None,951.4920681601998,None,950.5095661862197,None,950.9924927823849,None,1,[0.008614955552729953],[0.5172327975096778],951.4920681601998,None,[3 2 3 2 3 1 1 2],space,0,3.740571585180078,0.0028609080118258134,None,951.5087137347318,None,1,955.2471586553975,None,None,955.7467162337172,None,,,,,,,,,,,,,,,,,,,,,,,,,,,,,,,,,,,,,,,,,,,,,,09_JXL,9,27,F,2022-11-29_14h15.30.527,dynamic target,2022.1.3,120.103923517558,
0,3,2,2,mix,0,200,200,200,,,,,,,None,956.7708316629605,None,955.7883588737377,None,956.271275848555,None,1,[0.00864542315594008],[0.517099702186897],956.7708316629605,None,[2 2 2 2 0 1 2 0],space,0,1.9812101733314194,0.0029609700377477566,None,956.7874984044602,None,1,958.7691241942921,None,None,959.2687144851972,None,,,,,,,,,,,,,,,,,,,,,,,,,,,,,,,,,,,,,,,,,,,,,,09_JXL,9,27,F,2022-11-29_14h15.30.527,dynamic target,2022.1.3,120.103923517558,
1,4,2,2,mix,0,201,201,201,,,,,,,None,960.3011215926799,None,959.3103442967531,None,959.8015667404088,None,1,[0.008650554542327882],[0.5175105337730201],960.3011215926799,None,[3 1 2 1 3 0 3 3],space,0,2.226502928519949,0.0027236434380029095,None,960.3177883341787,None,1,962.5491984454466,None,None,963.0487624379986,None,,,,,,,,,,,,,,,,,,,,,,,,,,,,,,,,,,,,,,,,,,,,,,09_JXL,9,27,F,2022-11-29_14h15.30.527,dynamic target,2022.1.3,120.103923517558,
1,5,1,2,mix,0,202,202,202,,,,,,,None,964.08121284155,None,963.0904021916149,None,963.5816429158331,None,1,[0.008597316413215594],[0.5178091162915734],964.08121284155,None,[2 3 0 2 1 1 0 1],space,0,2.382108358295227,0.002183565068662574,None,964.09786386818,None,1,966.4791466890056,None,None,966.9787199821941,None,,,,,,,,,,,,,,,,,,,,,,,,,,,,,,,,,,,,,,,,,,,,,,09_JXL,9,27,F,2022-11-29_14h15.30.527,dynamic target,2022.1.3,120.103923517558,
1,6,2,2,mix,0,203,203,203,,,,,,,None,968.0111601229737,None,967.0203437002292,None,967.5116007807401,None,1,[0.008667872970363533],[0.5174438257563452],968.0111601229737,None,[2 3 1 1 2 0 3 0],space,0,1.5086265269292198,0.0027217191682211705,None,968.0278124324504,None,1,969.5348472418482,None,None,970.0344147622274,None,,,,,,,,,,,,,,,,,,,,,,,,,,,,,,,,,,,,,,,,,,,,,,09_JXL,9,27,F,2022-11-29_14h15.30.527,dynamic target,2022.1.3,120.103923517558,
0,7,4,2,mix,0,204,204,204,,,,,,,None,971.0668706178767,None,970.0760564401144,None,970.5673164070295,None,1,[0.008975114702479914],[0.517515665159408],971.0668706178767,None,[1 2 2 2 3 3 1 0],space,0,2.4519869304613167,0.0026678396161514684,None,971.0835145888514,None,1,973.5397291141371,None,None,974.0392982380746,None,,,,,,,,,,,,,,,,,,,,,,,,,,,,,,,,,,,,,,,,,,,,,,09_JXL,9,27,F,2022-11-29_14h15.30.527,dynamic target,2022.1.3,120.103923517558,
1,6,2,1,mix,0,205,205,205,,,,,,,None,975.0717419066823,None,974.0893181863376,None,974.5721838472955,None,1,[0.009535397904073761],[0.5175054023875418],975.0717419066823,None,[1 3 3 1 2 2 2 3],space,0,1.47088806982174,0.002716587782742863,None,975.088381708405,None,1,976.5621256894501,None,None,977.0616996240616,None,,,,,,,,,,,,,,,,,,,,,,,,,,,,,,,,,,,,,,,,,,,,,,09_JXL,9,27,F,2022-11-29_14h15.30.527,dynamic target,2022.1.3,120.103923517558,
1,7,2,2,mix,0,206,206,206,,,,,,,None,978.094123087837,None,977.1116987260693,None,977.5945624627575,None,1,[0.009327256061624212],[0.5173986054178386],978.094123087837,None,[1 3 2 0 0 2 2 2],space,0,2.5765529274613073,0.0026431448213770636,None,978.110791432895,None,1,980.6919010053025,None,None,981.1914746192034,None,,,,,,,,,,,,,,,,,,,,,,,,,,,,,,,,,,,,,,,,,,,,,,09_JXL,9,27,F,2022-11-29_14h15.30.527,dynamic target,2022.1.3,120.103923517558,
1,8,1,2,mix,0,207,207,207,,,,,,,None,982.2155961419676,None,981.2247777949533,None,981.7160210848651,None,1,[0.00859186431625858],[0.517594239506252],982.2155961419676,None,[0 1 2 2 3 2 1 3],space,0,1.2068429854653004,0.0025151808849841473,None,982.2322490928673,None,0,983.4478647982432,None,None,983.9474101895213,None,,,,,,,,,,,,,,,,,,,,,,,,,,,,,,,,,,,,,,,,,,,,,,09_JXL,9,27,F,2022-11-29_14h15.30.527,dynamic target,2022.1.3,120.103923517558,
1,1,2,2,mix,0,208,208,208,,,,,,,None,984.9715435786156,None,983.980731966546,None,984.4719755771685,None,1,[0.00864766813811002],[0.517939645921615],984.9715435786156,None,[0 2 3 1 1 1 3 1],space,0,1.6660006812935535,0.0023051147727528587,None,984.9881974916507,None,1,986.6617576407943,None,None,987.1613322168297,None,,,,,,,,,,,,,,,,,,,,,,,,,,,,,,,,,,,,,,,,,,,,,,09_JXL,9,27,F,2022-11-29_14h15.30.527,dynamic target,2022.1.3,120.103923517558,
0,2,3,2,mix,0,209,209,209,,,,,,,None,988.1854335347616,None,987.2029597834044,None,987.6858748339519,None,1,[0.008749654432904208],[0.5170147136077503],988.1854335347616,None,[3 3 1 1 2 1 2 2],space,0,2.1652652895472784,0.0031383235636894824,None,988.2020951448749,None,1,990.3669091674137,None,None,990.8664497480169,None,,,,,,,,,,,,,,,,,,,,,,,,,,,,,,,,,,,,,,,,,,,,,,09_JXL,9,27,F,2022-11-29_14h15.30.527,dynamic target,2022.1.3,120.103923517558,
0,3,3,2,mix,0,210,210,210,,,,,,,None,991.89058089213,None,990.9164931082278,None,991.3910180220691,None,1,[0.00865376165802445],[0.5175070059449354],991.89058089213,None,[2 2 3 0 1 3 0 0],space,0,2.3469397634034976,0.0026373720120318467,None,991.9072213352765,None,1,994.2552210248277,None,None,994.7547654539704,None,,,,,,,,,,,,,,,,,,,,,,,,,,,,,,,,,,,,,,,,,,,,,,09_JXL,9,27,F,2022-11-29_14h15.30.527,dynamic target,2022.1.3,120.103923517558,
1,2,4,1,mix,0,211,211,211,,,,,,,None,995.787224196024,None,994.7964225260148,None,995.287654270307,None,1,[0.008661138026582194],[0.5178864077925027],995.787224196024,None,[3 0 0 1 1 0 2 3],space,0,1.6338640940630285,0.0024410964997514384,None,995.8038896546768,None,1,997.435803475616,None,None,997.9353793344982,None,,,,,,,,,,,,,,,,,,,,,,,,,,,,,,,,,,,,,,,,,,,,,,09_JXL,9,27,F,2022-11-29_14h15.30.527,dynamic target,2022.1.3,120.103923517558,
0,3,4,2,mix,0,212,212,212,,,,,,,None,998.9594934808947,None,997.9770402550812,None,998.459920989485,None,1,[0.008797119752671279],[0.517013430760926],998.9594934808947,None,[3 2 2 2 1 1 0 2],space,0,1.2310551092623427,0.0032034280220614164,None,998.9761493181995,None,1,1000.2084089945502,None,None,1000.707983891297,None,,,,,,,,,,,,,,,,,,,,,,,,,,,,,,,,,,,,,,,,,,,,,,09_JXL,9,27,F,2022-11-29_14h15.30.527,dynamic target,2022.1.3,120.103923517558,
1,4,2,2,mix,0,213,213,213,,,,,,,None,1001.7404248338554,None,1000.7580025567131,None,1001.2325168870702,None,1,[0.008588657199652516],[0.5164201142633829],1001.7404248338554,None,[2 2 0 2 2 3 3 2],space,0,1.5936654581128096,0.0025860581527012982,None,1001.7487532335754,None,1,1003.3473771882955,None,None,1003.8469459915215,None,,,,,,,,,,,,,,,,,,,,,,,,,,,,,,,,,,,,,,,,,,,,,,09_JXL,9,27,F,2022-11-29_14h15.30.527,dynamic target,2022.1.3,120.103923517558,
1,5,2,2,mix,0,214,214,214,,,,,,,None,1004.8793877358594,None,1003.8885809344638,None,1004.3798271107798,None,1,[0.008617521245469106],[0.5176872458760045],1004.8793877358594,None,[3 1 2 1 0 3 2 3],space,0,2.317992332527865,0.0024173638403226505,None,1004.8960358760851,None,1,1007.2190386605034,None,None,1007.7186145193847,None,,,,,,,,,,,,,,,,,,,,,,,,,,,,,,,,,,,,,,,,,,,,,,09_JXL,9,27,F,2022-11-29_14h15.30.527,dynamic target,2022.1.3,120.103923517558,
1,8,1,0,mix,0,215,215,215,,,,,,,None,1008.7510540187413,None,1007.7602600458104,None,1008.2514850551597,None,1,[0.008628104729723418],[0.5173440844428114],1008.7510540187413,None,[1 2 0 1 1 2 2 0],space,0,2.3824845530270977,0.002736471902608173,None,1008.7677050453713,None,1,1011.14898658335,None,None,1011.6485541037301,None,,,,,,,,,,,,,,,,,,,,,,,,,,,,,,,,,,,,,,,,,,,,,,09_JXL,9,27,F,2022-11-29_14h15.30.527,dynamic target,2022.1.3,120.103923517558,
1,1,3,2,mix,0,216,216,216,,,,,,,None,1012.6810064315505,None,1011.6985381322911,None,1012.1814297708897,None,1,[0.008605975626778672],[0.5170913636848127],1012.6810064315505,None,[3 1 2 1 2 3 0 2],space,0,1.0117829706996417,0.0028596251650014892,None,1012.6976718902042,None,1,1013.7134374320494,None,None,1014.2130123287963,None,,,,,,,,,,,,,,,,,,,,,,,,,,,,,,,,,,,,,,,,,,,,,,09_JXL,9,27,F,2022-11-29_14h15.30.527,dynamic target,2022.1.3,120.103923517558,
1,2,2,2,mix,0,217,217,217,,,,,,,None,1015.245454874913,None,1014.2546437439105,None,1014.7375639258435,None,1,[0.008638367500680033],[0.5164608446384591],1015.245454874913,None,[1 3 2 0 2 3 3 0],space,0,1.4956922272704105,0.0026591804025883903,None,1015.2537829539206,None,1,1016.7525203122705,None,None,1017.2520509508141,None,,,,,,,,,,,,,,,,,,,,,,,,,,,,,,,,,,,,,,,,,,,,,,09_JXL,9,27,F,2022-11-29_14h15.30.527,dynamic target,2022.1.3,120.103923517558,
