tar_letter,tar_pos,tar_ori,tar_pos_type,block,trials.thisRepN,trials.thisTrialN,trials.thisN,trials.thisIndex,instructions_key.keys,instructions_key.rt,instructions_key.started,instructions_key.stopped,instruction_text.started,instruction_text.stopped,fix_key.keys,fix_key.started,fix_key.stopped,fixcross.started,fixcross.stopped,roi.started,roi.stopped,roi.numLooks,roi.timesOn,roi.timesOff,RedFixCross.started,RedFixCross.stopped,distori,search_resp.keys,search_resp.corr,search_resp.rt,search_resp.started,search_resp.stopped,fixcross_shape.started,fixcross_shape.stopped,correct,feedback_text.started,feedback_text.stopped,break_key.keys,break_key.started,break_key.stopped,break_key.rt,fix_key.rt,text_q1.started,text_q1.stopped,key_resp1.keys,key_resp1.rt,key_resp1.started,key_resp1.stopped,text_q2.started,text_q2.stopped,key_resp_2.keys,key_resp_2.rt,key_resp_2.started,key_resp_2.stopped,image.started,image.stopped,text_q1_2.started,text_q1_2.stopped,slider.response,slider.rt,slider.started,slider.stopped,mouse.x,mouse.y,mouse.leftButton,mouse.midButton,mouse.rightButton,mouse.time,mouse.started,mouse.stopped,key_resp_3.keys,key_resp_3.rt,key_resp_3.started,key_resp_3.stopped,text_q4.started,text_q4.stopped,key_resp1_3.keys,key_resp1_3.rt,key_resp1_3.started,key_resp1_3.stopped,finish_text.started,finish_text.stopped,key_resp.keys,key_resp.rt,key_resp.started,key_resp.stopped,participant,group,age,gender,date,expName,psychopyVersion,frameRate,
,,,,,,,,,space,1.2370063452835893,29.273663867279538,None,,,,,,,,,,,,,,,,,,,,,,,,,,,,,,,,,,,,,,,,,,,,,,,,,,,,,,,,,,,,,,,,,,,,,,,,,,,10_FF,10,35,F,2022-11-29_17h44.26.418,dynamic target,2022.1.3,120.10531140925652,
1,6,1,0,mix,0,0,0,0,,,,,29.273663867279538,None,None,83.60183780586885,None,82.64553508488825,None,83.1022531274175,None,1,[0.008998205936222803],[0.5173537057889916],83.60183780586885,None,[2 3 3 2 2 3 3 1],space,0,2.895763728865859,0.006663874337391462,None,83.62680488482147,None,1,86.5243064130118,None,None,87.02387848749859,None,,,,,,,,,,,,,,,,,,,,,,,,,,,,,,,,,,,,,,,,,,,,,,,10_FF,10,35,F,2022-11-29_17h44.26.418,dynamic target,2022.1.3,120.10531140925652,
1,7,4,2,mix,0,1,1,1,,,,,,,None,88.05631503630866,None,87.08222340386419,88.08129526443372,87.55674831770739,None,2,"[0.008632915403723018, 0.3083010430163995]","[0.06680166487785755, 0.8087981460303126]",88.05631503630866,None,[0 0 3 2 0 1 0 2],space,0,3.3852831938165764,0.00214225741365226,None,88.36439478830653,None,1,91.75313223004196,None,None,92.25271168089458,None,,,,,,,,,,,,,,,,,,,,,,,,,,,,,,,,,,,,,,,,,,,,,,,10_FF,10,35,F,2022-11-29_17h44.26.418,dynamic target,2022.1.3,120.10531140925652,
0,8,3,2,mix,0,2,2,2,,,,,,,None,93.2851485504143,None,92.29433661763323,93.29345594352344,92.78558343537225,None,1,[0.9752535706429626],[1.482621599414415],93.2851485504143,None,[2 3 0 3 1 2 2 1],space,0,3.451137155858305,0.003199964339728467,None,94.26763288525399,None,1,97.72299046909029,None,None,98.22256575069187,None,,,,,,,,,,,,,,,,,,,,,,,,,,,,,,,,,,,,,,,,,,,,,,,10_FF,10,35,F,2022-11-29_17h44.26.418,dynamic target,2022.1.3,120.10531140925652,
1,1,2,2,mix,0,3,3,3,,,,,,,None,99.24667855010193,None,98.25586661731722,99.25500165807898,98.74711792502058,None,14,"[0.008637084654765204, 0.24161643788102083, 0.2832627660864091, 0.29993816680143937, 0.5340400106979359, 0.5756202723096067, 0.6172547341848258, 0.6338724068082229, 0.6920029916000203, 0.7172314505223767, 0.7500165166493389, 0.7753703738162585, 0.7918004301391193, 0.8172181089175865]","[0.20833426874378347, 0.2499337730514526, 0.29159196758701, 0.5256726445186359, 0.5583698356604145, 0.5921285822696518, 0.6257455743398168, 0.6836417189369968, 0.7081585187734163, 0.7418008470631321, 0.7672499555810646, 0.7836319051639293, 0.8000257210733253, 1.3249671430967283]",99.24667855010193,None,[0 1 0 3 3 2 2 1],space,0,1.4861550162895583,0.002308386032382259,None,100.07097636804247,None,1,101.56135149159672,None,None,102.06092452821613,None,,,,,,,,,,,,,,,,,,,,,,,,,,,,,,,,,,,,,,,,,,,,,,,10_FF,10,35,F,2022-11-29_17h44.26.418,dynamic target,2022.1.3,120.10531140925652,
0,2,3,2,mix,0,4,4,4,,,,,,,None,103.08503764833586,None,102.09422475341853,None,102.58546868475605,None,1,[0.008649271694594063],[0.5178027020592708],103.08503764833586,None,[3 3 2 0 3 1 2 1],space,0,2.1513728147547226,0.0022593171561311465,None,103.10169605133342,None,1,105.2581776652587,None,None,105.75773498700656,None,,,,,,,,,,,,,,,,,,,,,,,,,,,,,,,,,,,,,,,,,,,,,,,10_FF,10,35,F,2022-11-29_17h44.26.418,dynamic target,2022.1.3,120.10531140925652,
0,3,1,2,mix,0,5,5,5,,,,,,,None,106.78185891510876,None,105.79105477561825,None,106.28228331279752,None,1,[0.008668514394230442],[0.5088356051492156],106.78185891510876,None,[0 1 3 3 1 3 0 1],space,0,2.12642433707515,0.002192929849115899,None,106.79018628855192,None,0,108.93000629236121,None,None,109.42959215744705,None,,,,,,,,,,,,,,,,,,,,,,,,,,,,,,,,,,,,,,,,,,,,,,,10_FF,10,35,F,2022-11-29_17h44.26.418,dynamic target,2022.1.3,120.10531140925652,
1,4,4,2,mix,0,6,6,6,,,,,,,None,110.46201683992331,None,109.47959087459822,None,109.96244659349759,None,1,[0.008946250658482313],[0.5175102130633604],110.46201683992331,None,[2 2 0 3 1 0 1 3],space,0,2.165540892015997,0.002455271951475879,None,110.47867139438313,None,1,112.64347226774407,None,None,113.14304081440278,None,,,,,,,,,,,,,,,,,,,,,,,,,,,,,,,,,,,,,,,,,,,,,,,10_FF,10,35,F,2022-11-29_17h44.26.418,dynamic target,2022.1.3,120.10531140925652,
0,2,3,0,mix,0,7,7,7,,,,,,,None,114.17548506028834,None,113.18467408964352,None,113.67591481386262,None,1,[0.008921555861888919],[0.517616689321585],114.17548506028834,None,[1 2 0 0 3 1 0 0],space,0,2.228380485536036,0.0024863809812813997,None,114.19213801118894,None,1,116.4235538952671,None,None,116.92311763124818,None,,,,,,,,,,,,,,,,,,,,,,,,,,,,,,,,,,,,,,,,,,,,,,,10_FF,10,35,F,2022-11-29_17h44.26.418,dynamic target,2022.1.3,120.10531140925652,
1,3,2,2,mix,0,8,8,8,,,,,,,None,117.94723771080899,None,116.95642427068378,None,117.4476662777488,None,1,[0.008621049073553877],[0.5088465093431296],117.94723771080899,None,[0 0 1 1 0 2 2 2],space,0,1.9368488117361267,0.0026207591472484637,None,117.95557695058233,None,0,119.90388368943968,None,None,120.4034535189443,None,,,,,,,,,,,,,,,,,,,,,,,,,,,,,,,,,,,,,,,,,,,,,,,10_FF,10,35,F,2022-11-29_17h44.26.418,dynamic target,2022.1.3,120.10531140925652,
0,4,4,2,mix,0,9,9,9,,,,,,,None,121.42756663906403,None,120.436763686208,121.43589840625646,120.9280037690005,None,3,"[0.008720148965949193, 0.7754258569257217, 2.5157812567158544]","[0.38326257366134087, 0.9917548249468382, 3.023143512677052]",121.42756663906403,None,[3 0 3 0 3 2 0 1],space,0,3.4616013346130785,0.0031130514907999896,None,123.95039970289145,None,1,127.4140967509993,None,None,127.91365311061455,None,,,,,,,,,,,,,,,,,,,,,,,,,,,,,,,,,,,,,,,,,,,,,,,10_FF,10,35,F,2022-11-29_17h44.26.418,dynamic target,2022.1.3,120.10531140925652,
0,5,2,2,mix,0,10,10,10,,,,,,,None,128.9377739278134,None,127.9636649769418,None,128.4382007949789,None,1,[0.008843622938002227],[0.5169662861517281],128.9377739278134,None,[2 1 3 2 2 1 1 3],space,0,3.610035331839754,0.0032038128811109345,None,128.9544214266134,None,1,132.5679988813572,None,None,133.06755908951018,None,,,,,,,,,,,,,,,,,,,,,,,,,,,,,,,,,,,,,,,,,,,,,,,10_FF,10,35,F,2022-11-29_17h44.26.418,dynamic target,2022.1.3,120.10531140925652,
1,6,2,2,mix,0,11,11,11,,,,,,,None,134.0999914690692,None,133.1175687108589,None,133.60041929837098,None,1,[0.008647347425721819],[0.5171304905015859],134.0999914690692,None,[3 0 0 1 2 0 2 1],space,0,1.3591310854244512,0.0027666829410009086,None,134.11665692772294,None,0,135.4821328349026,None,None,135.9817023436939,None,,,,,,,,,,,,,,,,,,,,,,,,,,,,,,,,,,,,,,,,,,,,,,,10_FF,10,35,F,2022-11-29_17h44.26.418,dynamic target,2022.1.3,120.10531140925652,
0,2,2,0,mix,0,12,12,12,,,,,,,None,137.00582155733719,None,136.02339623343505,137.02247354610154,136.50625131090783,None,1,[3.540050787891232],[4.047589114532457],137.00582155733719,None,[1 2 3 0 0 1 1 1],space,0,2.425989195548027,0.002716972641792381,None,140.55276540009072,None,1,142.992329860881,None,None,143.49189969038562,None,,,,,,,,,,,,,,,,,,,,,,,,,,,,,,,,,,,,,,,,,,,,,,,10_FF,10,35,F,2022-11-29_17h44.26.418,dynamic target,2022.1.3,120.10531140925652,
0,3,1,2,mix,0,13,13,13,,,,,,,None,144.5160255427567,None,143.52520921622636,None,144.01646180677199,None,1,[0.008713734732737066],[0.5088134760480898],144.5160255427567,None,[3 0 3 3 1 1 0 2],space,0,2.3743700187915238,0.0027840013681270648,None,144.52434361556152,None,1,146.89730300769588,None,None,147.39686866794946,None,,,,,,,,,,,,,,,,,,,,,,,,,,,,,,,,,,,,,,,,,,,,,,,10_FF,10,35,F,2022-11-29_17h44.26.418,dynamic target,2022.1.3,120.10531140925652,
0,4,1,2,mix,0,14,14,14,,,,,,,None,148.4293170830897,None,147.4385102816923,None,147.92976543793338,None,1,[0.009537001460557804],[0.5176558161365392],148.4293170830897,None,[3 2 3 1 2 1 1 3],space,0,2.564130594739254,0.002333722251933068,None,148.44597676893318,None,1,151.0104269762087,None,None,151.51000129567402,None,,,,,,,,,,,,,,,,,,,,,,,,,,,,,,,,,,,,,,,,,,,,,,,10_FF,10,35,F,2022-11-29_17h44.26.418,dynamic target,2022.1.3,120.10531140925652,
1,5,3,2,mix,0,15,15,15,,,,,,,None,152.54243784448408,None,151.55162815668518,None,152.04287689869307,None,1,[0.00911751066450961],[0.5172716036177007],152.54243784448408,None,[1 3 1 0 1 2 1 3],space,0,1.5396891621312534,0.002776624998659827,None,152.55910266171486,None,0,154.10775685953922,None,None,154.60733342398672,None,,,,,,,,,,,,,,,,,,,,,,,,,,,,,,,,,,,,,,,,,,,,,,,10_FF,10,35,F,2022-11-29_17h44.26.418,dynamic target,2022.1.3,120.10531140925652,
0,6,1,2,mix,0,16,16,16,,,,,,,None,155.63976901066053,None,154.66562959218936,155.6647530873306,155.14019972636743,None,2,"[3.0656214461123454, 3.5147995584447926]","[3.3067106340895407, 4.022338847222272]",155.63976901066053,None,[1 1 1 1 3 2 3 2],space,0,2.616170545141358,0.002809016874380177,None,159.16173903951858,None,1,161.78448788447713,None,None,162.28404552693829,None,,,,,,,,,,,,,,,,,,,,,,,,,,,,,,,,,,,,,,,,,,,,,,,10_FF,10,35,F,2022-11-29_17h44.26.418,dynamic target,2022.1.3,120.10531140925652,
0,5,1,1,mix,0,17,17,17,,,,,,,None,163.31649095945832,None,162.34238050124623,None,162.8086041155002,None,1,[0.00866883510389016],[0.5164069650891179],163.31649095945832,None,[0 0 0 1 0 2 1 1],space,0,2.421513985595084,0.0029369808071351144,None,163.32482025717036,None,1,165.7477311256407,None,None,166.24730063443204,None,,,,,,,,,,,,,,,,,,,,,,,,,,,,,,,,,,,,,,,,,,,,,,,10_FF,10,35,F,2022-11-29_17h44.26.418,dynamic target,2022.1.3,120.10531140925652,
1,6,3,2,mix,0,18,18,18,,,,,,,None,167.2714197518566,None,166.2806111224054,None,166.76352489010605,None,1,[0.008626180460851174],[0.5164140207416494],167.2714197518566,None,[3 2 2 2 2 0 3 0],space,0,3.138542746371968,0.003470644944172818,None,167.27975899162993,None,1,170.4187262232408,None,None,170.91828130001014,None,,,,,,,,,,,,,,,,,,,,,,,,,,,,,,,,,,,,,,,,,,,,,,,10_FF,10,35,F,2022-11-29_17h44.26.418,dynamic target,2022.1.3,120.10531140925652,
0,7,4,2,mix,0,19,19,19,,,,,,,None,171.9423937787069,None,170.95158152521253,None,171.44282738081893,None,1,[0.008669797240145272],[0.5175567162477819],171.9423937787069,None,[2 2 0 0 3 1 3 0],space,0,1.2738759946114442,0.0024741939378145617,None,171.95904897458968,None,0,173.2412832185073,None,None,173.74084695448838,None,,,,,,,,,,,,,,,,,,,,,,,,,,,,,,,,,,,,,,,,,,,,,,,10_FF,10,35,F,2022-11-29_17h44.26.418,dynamic target,2022.1.3,120.10531140925652,
0,8,4,2,mix,0,20,20,20,,,,,,,None,174.77329120037757,None,173.7824789468832,None,174.27372287822072,None,1,[0.00900943084343453],[0.5175676204416959],174.77329120037757,None,[2 1 0 1 2 2 3 1],space,0,3.803404554942972,0.0023763768949720543,None,174.78994992408843,None,1,178.6033233420967,None,None,179.10289445444724,None,,,,,,,,,,,,,,,,,,,,,,,,,,,,,,,,,,,,,,,,,,,,,,,10_FF,10,35,F,2022-11-29_17h44.26.418,dynamic target,2022.1.3,120.10531140925652,
1,1,2,2,mix,0,21,21,21,,,,,,,None,180.12702906224513,None,179.13620333886502,180.1353387003328,179.6274581743928,None,2,"[0.008788781251496403, 1.4585416088048078]","[0.40025515816523694, 1.9660449778821203]",180.12702906224513,None,[0 0 3 0 0 0 0 2],space,0,1.927920520931366,0.0025502025928290095,None,181.59243325830903,None,1,183.5240979504597,None,None,184.02365783790302,None,,,,,,,,,,,,,,,,,,,,,,,,,,,,,,,,,,,,,,,,,,,,,,,10_FF,10,35,F,2022-11-29_17h44.26.418,dynamic target,2022.1.3,120.10531140925652,
0,2,1,2,mix,0,22,22,22,,,,,,,None,185.056100480233,None,184.06528983029784,None,184.55652991309398,None,1,[0.008699302710738266],[0.5176609475238365],185.056100480233,None,[3 2 1 2 1 1 2 2],space,0,2.3992351114502526,0.002321214498806512,None,185.0727521482877,None,1,187.47068792000937,None,None,187.97029527277337,None,,,,,,,,,,,,,,,,,,,,,,,,,,,,,,,,,,,,,,,,,,,,,,,10_FF,10,35,F,2022-11-29_17h44.26.418,dynamic target,2022.1.3,120.10531140925652,
0,3,1,2,mix,0,23,23,23,,,,,,,None,189.00269805065037,None,188.020277312924,None,188.4948051131687,None,1,[0.008643178174679633],[0.5164961229165783],189.00269805065037,None,[1 0 1 2 0 3 2 0],space,0,2.797278962989367,0.0027840013681270648,None,189.01102670693945,None,1,191.8086182268089,None,None,192.30819254627787,None,,,,,,,,,,,,,,,,,,,,,,,,,,,,,,,,,,,,,,,,,,,,,,,10_FF,10,35,F,2022-11-29_17h44.26.418,dynamic target,2022.1.3,120.10531140925652,
0,4,3,2,mix,0,24,24,24,,,,,,,None,193.33230813587434,None,192.34149854429052,None,192.82441680195188,None,1,[0.008663703720230842],[0.5164630896215385],193.33230813587434,None,[2 0 2 3 1 2 2 1],space,0,2.3554637480447127,0.0027416674311098177,None,193.34063198148942,None,1,195.69693457418543,None,None,196.1965133836151,None,,,,,,,,,,,,,,,,,,,,,,,,,,,,,,,,,,,,,,,,,,,,,,,10_FF,10,35,F,2022-11-29_17h44.26.418,dynamic target,2022.1.3,120.10531140925652,
0,5,3,2,mix,0,25,25,25,,,,,,,None,197.22062714515778,None,196.22981649522262,None,196.7210591437106,None,1,[0.009503326742560603],[0.5179370802288759],197.22062714515778,None,[2 2 1 3 2 3 1 1],space,0,2.602039349716506,0.0021836292107764166,None,197.23727624752064,None,1,199.84337438655712,None,None,200.3429461403306,None,,,,,,,,,,,,,,,,,,,,,,,,,,,,,,,,,,,,,,,,,,,,,,,10_FF,10,35,F,2022-11-29_17h44.26.418,dynamic target,2022.1.3,120.10531140925652,
0,6,4,2,mix,0,26,26,26,,,,,,,None,201.36705124266155,None,200.37624123414935,None,200.8674813169455,None,1,[0.009246757443179376],[0.5173700620835007],201.36705124266155,None,[3 3 1 2 2 0 3 1],space,0,2.8875082910417404,0.00277149361136253,None,201.3837128527739,None,1,204.27288325519476,None,None,204.77245276398972,None,,,,,,,,,,,,,,,,,,,,,,,,,,,,,,,,,,,,,,,,,,,,,,,10_FF,10,35,F,2022-11-29_17h44.26.418,dynamic target,2022.1.3,120.10531140925652,
1,7,4,2,mix,0,27,27,27,,,,,,,None,205.79656909122423,None,204.814145050168,205.81323454987796,205.29699980693113,None,2,"[0.008614955553639447, 0.8084668509254698]","[0.3665727409243118, 1.3161074845738767]",205.79656909122423,None,[1 3 2 3 1 2 0 1],space,0,2.6671755591487454,0.0032368461725127418,None,206.61253353841676,None,1,209.27690337536114,None,None,209.7764805812316,None,,,,,,,,,,,,,,,,,,,,,,,,,,,,,,,,,,,,,,,,,,,,,,,10_FF,10,35,F,2022-11-29_17h44.26.418,dynamic target,2022.1.3,120.10531140925652,
1,8,2,2,mix,0,28,28,28,,,,,,,None,210.8005920977921,None,209.80978465497537,210.80891745075132,210.30103018986847,None,1,[0.9334302096249303],[1.4416779503699217],210.8005920977921,None,[3 0 3 2 1 2 3 0],space,0,1.6653593692426512,0.002706389150262112,None,211.74144838499342,None,1,213.40668446402196,None,None,213.9062571799317,None,,,,,,,,,,,,,,,,,,,,,,,,,,,,,,,,,,,,,,,,,,,,,,,10_FF,10,35,F,2022-11-29_17h44.26.418,dynamic target,2022.1.3,120.10531140925652,
1,1,4,2,mix,0,29,29,29,,,,,,,None,214.93037446930248,None,213.93955708442445,None,214.43079043227408,None,1,[0.00865793090997613],[0.5177982120985689],214.93037446930248,None,[1 3 0 3 1 0 3 0],space,0,1.6277148806402693,0.0022394330335373525,None,214.94703768297404,None,1,216.57895118320084,None,None,217.0785392932652,None,,,,,,,,,,,,,,,,,,,,,,,,,,,,,,,,,,,,,,,,,,,,,,,10_FF,10,35,F,2022-11-29_17h44.26.418,dynamic target,2022.1.3,120.10531140925652,
0,2,4,2,mix,0,30,30,30,,,,,,,None,218.11097167282423,None,217.1284815651743,None,217.61139276718313,None,1,[0.008674287200847175],[0.5173100890096975],218.11097167282423,None,[0 1 0 1 2 1 1 0],space,0,3.518998451931111,0.0028279388570808806,None,218.12761436095388,None,1,221.64959818041098,None,None,222.14915005006188,None,,,,,,,,,,,,,,,,,,,,,,,,,,,,,,,,,,,,,,,,,,,,,,,10_FF,10,35,F,2022-11-29_17h44.26.418,dynamic target,2022.1.3,120.10531140925652,
1,3,4,2,mix,0,31,31,31,,,,,,,None,223.17326766014594,None,222.18246150017148,223.1815952580837,222.67370414865945,None,2,"[0.009134829091635766, 0.05017340877384413]","[0.04188365480513312, 0.5505893717454455]",223.17326766014594,None,[0 3 0 2 0 0 3 1],space,0,2.3270987294745282,0.002657320277648978,None,223.2232335685003,None,1,225.55455048097065,None,None,226.0541225554538,None,,,,,,,,,,,,,,,,,,,,,,,,,,,,,,,,,,,,,,,,,,,,,,,10_FF,10,35,F,2022-11-29_17h44.26.418,dynamic target,2022.1.3,120.10531140925652,
0,6,1,0,mix,0,32,32,32,,,,,,,None,227.08656423565117,None,226.09575999994922,None,226.58699046139373,None,1,[0.009486008315434447],[0.5174925739229366],227.08656423565117,None,[1 0 3 2 3 0 1 2],space,0,1.5674121160409413,0.002753213047981262,None,227.10322231793543,None,0,228.6768637995483,None,None,229.17643106335746,None,,,,,,,,,,,,,,,,,,,,,,,,,,,,,,,,,,,,,,,,,,,,,,,10_FF,10,35,F,2022-11-29_17h44.26.418,dynamic target,2022.1.3,120.10531140925652,
1,4,1,0,mix,0,33,33,33,,,,,,,None,230.20887819564814,None,229.21806722500332,230.21720226576144,229.70932302266738,None,4,"[1.7069032534927828, 1.74052441481399, 2.165425940311252, 2.8811798723945685]","[1.7163081217659055, 1.7571613301333855, 2.431560460874607, 3.3895154881283815]",230.20887819564814,None,[0 0 3 3 2 3 0 3],space,0,2.227538938241196,0.002627173384098569,None,233.0980684821916,None,1,235.32946672712933,None,None,235.829059968581,None,,,,,,,,,,,,,,,,,,,,,,,,,,,,,,,,,,,,,,,,,,,,,,,10_FF,10,35,F,2022-11-29_17h44.26.418,dynamic target,2022.1.3,120.10531140925652,
0,5,4,2,mix,0,34,34,34,,,,,,,None,236.85315791904068,None,235.86232267052765,None,236.35358392028866,None,1,[0.00863034971189336],[0.5089616448167362],236.85315791904068,None,[0 0 3 2 0 1 2 2],space,0,2.6245799245480157,0.0027807942460640334,None,236.8614811232328,None,0,239.4842386274031,None,None,239.98378953492139,None,,,,,,,,,,,,,,,,,,,,,,,,,,,,,,,,,,,,,,,,,,,,,,,10_FF,10,35,F,2022-11-29_17h44.26.418,dynamic target,2022.1.3,120.10531140925652,
0,4,3,1,mix,0,35,35,35,,,,,,,None,241.0162546270658,None,240.04213701698245,None,240.51666449651748,None,1,[0.008632273980765603],[0.5172119512535573],241.0162546270658,None,[0 0 0 0 3 0 1 2],space,0,3.637151499362517,0.0028632171379285865,None,241.0328876938438,None,0,244.67141843694117,None,None,245.17100077419528,None,,,,,,,,,,,,,,,,,,,,,,,,,,,,,,,,,,,,,,,,,,,,,,,10_FF,10,35,F,2022-11-29_17h44.26.418,dynamic target,2022.1.3,120.10531140925652,
0,5,3,2,mix,0,36,36,36,,,,,,,None,246.2034427751023,None,245.22932292004043,246.22841274046004,245.703862265902,None,3,"[0.008882749756594421, 2.6400775352412893, 3.231075288334978]","[0.16676683559489902, 2.956752037960541, 3.739557148564927]",246.2034427751023,None,[0 2 1 2 3 1 1 0],space,0,4.730300906721823,0.002668224467925029,None,249.442315845783,None,1,254.1798986936119,None,None,254.6794672402706,None,,,,,,,,,,,,,,,,,,,,,,,,,,,,,,,,,,,,,,,,,,,,,,,10_FF,10,35,F,2022-11-29_17h44.26.418,dynamic target,2022.1.3,120.10531140925652,
0,6,3,2,mix,0,37,37,37,,,,,,,None,255.70359126458425,None,254.71277323828326,None,255.20401845246306,None,1,[0.008631953267467907],[0.5177594059896364],255.70359126458425,None,[0 1 2 0 0 3 0 0],space,0,2.083865263601183,0.002359058467845898,None,255.72024132907973,None,1,257.8017790515005,None,None,258.30134759815917,None,,,,,,,,,,,,,,,,,,,,,,,,,,,,,,,,,,,,,,,,,,,,,,,10_FF,10,35,F,2022-11-29_17h44.26.418,dynamic target,2022.1.3,120.10531140925652,
0,7,3,2,mix,0,38,38,38,,,,,,,None,259.3337899197759,None,258.3429815148229,259.34212264910457,258.83422159761903,None,3,"[0.033553491171915084, 1.449639616352215, 2.1066779856482754]","[0.041388476063730195, 1.6574434280737478, 2.614535099641216]",259.3337899197759,None,[0 3 1 0 1 1 2 3],space,0,2.2604009751594276,0.0031691760232206434,None,261.4486476553102,None,1,263.71335244346847,None,None,264.21292195225976,None,,,,,,,,,,,,,,,,,,,,,,,,,,,,,,,,,,,,,,,,,,,,,,,10_FF,10,35,F,2022-11-29_17h44.26.418,dynamic target,2022.1.3,120.10531140925652,
0,8,4,2,mix,0,39,39,39,,,,,,,None,265.2370389209209,None,264.24622634671687,None,264.7374693159145,None,1,[0.008772104247327661],[0.5176429876737529],265.2370389209209,None,[2 1 2 3 2 3 2 2],space,0,1.8305454172623286,0.002286256931256503,None,265.2536915511082,None,1,267.0854494420564,None,None,267.5850372314111,None,,,,,,,,,,,,,,,,,,,,,,,,,,,,,,,,,,,,,,,,,,,,,,,10_FF,10,35,F,2022-11-29_17h44.26.418,dynamic target,2022.1.3,120.10531140925652,
1,5,4,0,mix,0,40,40,40,,,,,,,None,268.6091349573726,None,267.6183236660145,268.6174622346007,268.1095672766387,None,3,"[0.008720148965949193, 0.4497983686051157, 0.7915586135786725]","[0.3752685158033273, 0.47476769253989914, 1.299808599305834]",268.6091349573726,None,[0 1 1 1 2 1 3 0],space,0,2.7639118052720733,0.0029645620088558644,None,269.4084467743778,None,0,272.1810741017034,None,None,272.68064232764516,None,,,,,,,,,,,,,,,,,,,,,,,,,,,,,,,,,,,,,,,,,,,,,,,10_FF,10,35,F,2022-11-29_17h44.26.418,dynamic target,2022.1.3,120.10531140925652,
1,6,4,2,mix,0,41,41,41,,,,,,,None,273.7130721415124,None,272.73897088772355,273.73805108679517,273.21350381935554,None,1,[0.15804315880450304],[0.6583847166803025],273.7130721415124,None,[2 2 1 3 1 2 2 3],space,0,3.4202115757070715,0.0026938814044115134,None,273.87127084545136,None,1,277.3016491632952,None,None,277.8012186720865,None,,,,,,,,,,,,,,,,,,,,,,,,,,,,,,,,,,,,,,,,,,,,,,,10_FF,10,35,F,2022-11-29_17h44.26.418,dynamic target,2022.1.3,120.10531140925652,
0,6,3,0,mix,0,42,42,42,,,,,,,None,278.825321208722,None,277.8345346121605,278.83365939014766,278.3257557729703,None,1,[2.365511506170151],[2.8655531986805727],278.825321208722,None,[0 2 0 1 0 2 2 3],space,0,2.7406817004557524,0.002328270154976053,None,281.18996390711254,None,1,283.929284049791,None,None,284.4288471443491,None,,,,,,,,,,,,,,,,,,,,,,,,,,,,,,,,,,,,,,,,,,,,,,,10_FF,10,35,F,2022-11-29_17h44.26.418,dynamic target,2022.1.3,120.10531140925652,
0,7,1,2,mix,0,43,43,43,,,,,,,None,285.46128455908035,None,284.47880320685726,None,284.9533922630253,None,1,[0.009081911674002185],[0.5163992680099909],285.46128455908035,None,[1 2 2 1 2 3 3 1],space,0,1.8055209309277416,0.0030248557923187036,None,285.4696334202017,None,1,287.2763793325721,None,None,287.77595910413436,None,,,,,,,,,,,,,,,,,,,,,,,,,,,,,,,,,,,,,,,,,,,,,,,10_FF,10,35,F,2022-11-29_17h44.26.418,dynamic target,2022.1.3,120.10531140925652,
0,8,1,2,mix,0,44,44,44,,,,,,,None,288.80843317620383,None,287.83430690690875,288.83340185871566,288.30884913917544,None,2,"[2.9077476230449975, 3.3146848078249604]","[3.2403861881066405, 3.8223033123758796]",288.80843317620383,None,[3 1 2 1 0 0 1 3],space,0,2.1685315278809867,0.0030104237703199033,None,292.1305459858777,None,1,294.30367349504377,None,None,294.8032439659713,None,,,,,,,,,,,,,,,,,,,,,,,,,,,,,,,,,,,,,,,,,,,,,,,10_FF,10,35,F,2022-11-29_17h44.26.418,dynamic target,2022.1.3,120.10531140925652,
1,1,4,2,mix,0,45,45,45,,,,,,,None,295.8273580482237,None,294.8365438704641,None,295.32779710243267,None,1,[0.008642536755360197],[0.5177917978653568],295.8273580482237,None,[0 0 2 0 1 0 2 1],space,0,2.1660761597122473,0.0021781771138194017,None,295.84401837549376,None,1,298.0088128346215,None,None,298.50838138127654,None,,,,,,,,,,,,,,,,,,,,,,,,,,,,,,,,,,,,,,,,,,,,,,,10_FF,10,35,F,2022-11-29_17h44.26.418,dynamic target,2022.1.3,120.10531140925652,
1,5,4,0,mix,0,46,46,46,,,,,,,None,299.5408253064561,None,298.5667262976458,None,299.04127077489466,None,1,[0.009488253297604388],[0.5175127787551901],299.5408253064561,None,[0 2 0 1 2 2 1 1],space,0,2.037112564968993,0.002384394687396707,None,299.5574942929343,None,1,301.5973882528451,None,None,302.09695936519563,None,,,,,,,,,,,,,,,,,,,,,,,,,,,,,,,,,,,,,,,,,,,,,,,10_FF,10,35,F,2022-11-29_17h44.26.418,dynamic target,2022.1.3,120.10531140925652,
1,6,2,2,mix,0,47,47,47,,,,,,,None,303.1294010453894,None,302.1385868676298,None,302.62983240251924,None,1,[0.009222383359883679],[0.5177430496951274],303.1294010453894,None,[1 3 1 2 0 1 0 3],space,0,1.5837116427355795,0.002291067605256103,None,303.1460591276773,None,1,304.7280250001131,None,None,305.22759194320895,None,,,,,,,,,,,,,,,,,,,,,,,,,,,,,,,,,,,,,,,,,,,,,,,10_FF,10,35,F,2022-11-29_17h44.26.418,dynamic target,2022.1.3,120.10531140925652,
0,7,2,2,mix,0,48,48,48,,,,,,,None,306.2517117982752,None,305.2609110903977,None,305.75214315540507,None,1,[0.008625539037893759],[0.5175435670716979],306.2517117982752,None,[2 1 3 3 2 1 0 3],space,0,2.781991281459341,0.0026156277635891456,None,306.26837372910086,None,1,309.04929882818396,None,None,309.548876996187,None,,,,,,,,,,,,,,,,,,,,,,,,,,,,,,,,,,,,,,,,,,,,,,,10_FF,10,35,F,2022-11-29_17h44.26.418,dynamic target,2022.1.3,120.10531140925652,
0,8,4,2,mix,0,49,49,49,,,,,,,None,310.57299653053997,None,309.5821775421027,None,310.07342211485957,None,1,[0.008646064579806989],[0.5176227828414994],310.57299653053997,None,[3 2 3 2 2 2 2 0],space,0,1.979935455830855,0.002490229522663867,None,310.5896507642865,None,1,312.57128713760176,None,None,313.07086498489514,None,,,,,,,,,,,,,,,,,,,,,,,,,,,,,,,,,,,,,,,,,,,,,,,10_FF,10,35,F,2022-11-29_17h44.26.418,dynamic target,2022.1.3,120.10531140925652,
0,1,3,2,mix,0,50,50,50,,,,,,,None,314.1032842152781,None,313.1207982768792,314.11993652475576,313.5953921437176,None,1,[0.9006066581023333],[1.407848647206265],314.1032842152781,None,[3 0 1 1 3 3 2 0],space,0,4.9438185166727635,0.0031306906275858637,None,315.0025127755471,None,1,319.9482486900524,None,None,320.44782108524885,None,,,,,,,,,,,,,,,,,,,,,,,,,,,,,,,,,,,,,,,,,,,,,,,10_FF,10,35,F,2022-11-29_17h44.26.418,dynamic target,2022.1.3,120.10531140925652,
1,2,3,2,mix,0,51,51,51,,,,,,,None,321.4719354882145,None,320.48949733584595,321.4885894012514,320.9723681281903,None,10,"[0.009049840511579532, 0.14221058823022759, 0.4419697979465127, 0.4748135543013632, 0.7091742124794109, 2.582566565302841, 2.9733049268361356, 3.3899975176937005, 3.4404018388340774, 3.5897793696494773]","[0.025510364437650423, 0.4331479833999765, 0.4498246669572836, 0.5593537789136462, 0.716893420474662, 2.8818084671729594, 3.0153505410089565, 3.423252426346153, 3.4726535615372995, 4.097469392887433]",321.4719354882145,None,[1 3 1 2 1 3 2 0],space,0,3.9158444455642893,0.0028029233508277684,None,325.0688452393224,None,1,328.9821395698491,None,None,329.48170490938935,None,,,,,,,,,,,,,,,,,,,,,,,,,,,,,,,,,,,,,,,,,,,,,,,10_FF,10,35,F,2022-11-29_17h44.26.418,dynamic target,2022.1.3,120.10531140925652,
1,3,4,2,mix,0,52,52,52,,,,,,,None,330.5058209159142,None,329.51500866241986,None,330.00625740442774,None,1,[0.008656327350763604],[0.5178941048689012],330.5058209159142,None,[3 2 3 3 1 0 1 3],space,0,5.645580121465173,0.0020781150888069533,None,330.5224722632556,None,1,336.16761319356374,None,None,336.66718013665957,None,,,,,,,,,,,,,,,,,,,,,,,,,,,,,,,,,,,,,,,,,,,,,,,10_FF,10,35,F,2022-11-29_17h44.26.418,dynamic target,2022.1.3,120.10531140925652,
1,4,4,2,mix,0,53,53,53,,,,,,,None,337.69131249947895,None,336.70049735957946,337.69962342041254,337.19173936664447,None,2,"[0.008744523045606911, 0.20849237957008881]","[0.10048311998616555, 0.7091735710528155]",337.69131249947895,None,[0 2 0 1 3 2 0 0],space,0,1.6126433587378415,0.002586443009931827,None,337.89945369982524,None,1,339.51473028473265,None,None,340.0142978692551,None,,,,,,,,,,,,,,,,,,,,,,,,,,,,,,,,,,,,,,,,,,,,,,,10_FF,10,35,F,2022-11-29_17h44.26.418,dynamic target,2022.1.3,120.10531140925652,
1,3,1,1,mix,0,54,54,54,,,,,,,None,341.04674243585396,None,340.0642561767454,None,340.5471728308512,None,1,[0.008615276266937144],[0.5174550506635569],341.04674243585396,None,[0 2 0 0 3 1 1 2],space,0,2.224472935151425,0.002784001364489086,None,341.06339923529595,None,1,343.28648367289134,None,None,343.7860515781234,None,,,,,,,,,,,,,,,,,,,,,,,,,,,,,,,,,,,,,,,,,,,,,,,10_FF,10,35,F,2022-11-29_17h44.26.418,dynamic target,2022.1.3,120.10531140925652,
1,1,3,0,mix,0,55,55,55,,,,,,,None,344.8101761476486,None,343.8277294322834,None,344.31059765893224,None,1,[0.00879744046687847],[0.5089529856013542],344.8101761476486,None,[3 3 3 1 0 1 1 3],space,0,3.0614500870142365,0.0025710488480399363,None,344.81849710685856,None,1,347.88252076768185,None,None,348.38208995575985,None,,,,,,,,,,,,,,,,,,,,,,,,,,,,,,,,,,,,,,,,,,,,,,,10_FF,10,35,F,2022-11-29_17h44.26.418,dynamic target,2022.1.3,120.10531140925652,
1,2,3,2,mix,0,56,56,56,,,,,,,None,349.40622456355777,None,348.41542289354766,None,348.906650147881,None,1,[0.008671080086060101],[0.5175021952709358],349.40622456355777,None,[1 2 3 0 3 1 1 0],space,0,2.152574841908063,0.0027519302057044115,None,349.42287013809255,None,1,351.57933667856923,None,None,352.07890875305236,None,,,,,,,,,,,,,,,,,,,,,,,,,,,,,,,,,,,,,,,,,,,,,,,10_FF,10,35,F,2022-11-29_17h44.26.418,dynamic target,2022.1.3,120.10531140925652,
1,3,1,2,mix,0,57,57,57,,,,,,,None,353.10303085309715,None,352.1205471596804,353.1196770690549,352.6034644552092,None,2,"[0.00865921375589096, 0.8167428142951394]","[0.4831655263224093, 1.3251691914156254]",353.10303085309715,None,[2 0 1 0 1 3 3 2],space,0,1.9996547305345302,0.0023648312781006098,None,353.92732129467186,None,1,355.9255933004606,None,None,356.42518461764337,None,,,,,,,,,,,,,,,,,,,,,,,,,,,,,,,,,,,,,,,,,,,,,,,10_FF,10,35,F,2022-11-29_17h44.26.418,dynamic target,2022.1.3,120.10531140925652,
1,2,1,1,mix,0,58,58,58,,,,,,,None,357.45761026225955,None,356.4751249652836,None,356.9580361672888,None,1,[0.009002375190902967],[0.5174082267694757],357.45761026225955,None,[0 3 3 2 3 3 0 2],space,0,2.532583475465799,0.002482853153196629,None,357.47426257173356,None,0,360.00541200859516,None,None,360.504982800236,None,,,,,,,,,,,,,,,,,,,,,,,,,,,,,,,,,,,,,,,,,,,,,,,10_FF,10,35,F,2022-11-29_17h44.26.418,dynamic target,2022.1.3,120.10531140925652,
0,3,3,2,mix,0,59,59,59,,,,,,,None,361.5374257632757,None,360.5466298660758,361.5457530405074,361.0295317674463,None,5,"[0.008645743866509292, 0.5759076299218577, 0.6169311361591099, 0.9667572783910146, 1.7491765729137114]","[0.4831094017899886, 0.583891104291979, 0.8760930653807009, 1.3577935810208146, 2.2491852321290935]",361.5374257632757,None,[2 1 3 0 3 1 0 0],space,0,3.1933125940959144,0.0025498818831692915,None,363.2775938674786,None,1,366.4831789962118,None,space,366.99107587844264,None,4.221143307106104,,,,,,,,,,,,,,,,,,,,,,,,,,,,,,,,,,,,,,,,,,,,,,10_FF,10,35,F,2022-11-29_17h44.26.418,dynamic target,2022.1.3,120.10531140925652,
0,4,4,2,mix,0,60,60,60,,,,,,,None,372.25320022090455,None,371.2623831567362,372.26154032659906,371.75362484309153,None,1,[0.04145646692631999],[0.5501570524793351],372.25320022090455,None,[1 1 3 1 3 1 1 2],space,0,2.4877688371598197,0.00288213912062929,None,372.3031597150293,None,1,374.7926743693024,None,None,375.2922438780937,None,,,,,,,,,,,,,,,,,,,,,,,,,,,,,,,,,,,,,,,,,,,,,,,10_FF,10,35,F,2022-11-29_17h44.26.418,dynamic target,2022.1.3,120.10531140925652,
0,5,4,2,mix,0,61,61,61,,,,,,,None,376.31638297585596,None,375.32557040165193,376.3246890861192,375.81680278736894,None,9,"[0.00871213117352454, 0.15012094035409973, 0.6418337520772184, 0.6754722318255517, 0.700016612863692, 0.7254403851620737, 0.7499982360859576, 0.8671962043154053, 0.9999865301142563]","[0.13346927229940775, 0.6338239793512912, 0.6587740605900763, 0.6918628406201606, 0.7089269438183692, 0.7336781838494062, 0.7589528252465243, 0.90035233378876, 1.500054520976846]",376.31638297585596,None,[3 1 0 1 0 3 0 3],space,0,3.554467874320835,0.0025206971222360153,None,377.31550711242016,None,1,380.870775025287,None,None,381.3703265742282,None,,,,,,,,,,,,,,,,,,,,,,,,,,,,,,,,,,,,,,,,,,,,,,,10_FF,10,35,F,2022-11-29_17h44.26.418,dynamic target,2022.1.3,120.10531140925652,
1,6,3,2,mix,0,62,62,62,,,,,,,None,382.39446278558535,None,381.4120281610449,None,381.8948902941738,None,1,[0.00928460141949472],[0.517812323410908],382.39446278558535,None,[3 1 1 3 2 0 2 1],space,0,3.818076790874329,0.0022217938967514783,None,382.41111413292674,None,1,386.2328552378276,None,None,386.73239010976465,None,,,,,,,,,,,,,,,,,,,,,,,,,,,,,,,,,,,,,,,,,,,,,,,10_FF,10,35,F,2022-11-29_17h44.26.418,dynamic target,2022.1.3,120.10531140925652,
1,7,3,2,mix,0,63,63,63,,,,,,,None,387.7648452598478,None,386.79072668763183,387.78982452584387,387.2652631470919,None,5,"[1.9656755180913024, 1.9994759572109615, 2.0740606516992557, 2.4151409880360006, 3.365261030394322]","[1.9740961224015336, 2.0073077349843516, 2.0826348768750904, 2.923571213694231, 3.8726412462056032]",387.7648452598478,None,[3 2 0 0 0 0 3 2],space,0,2.196396236322471,0.0028070926055079326,None,391.1369300713959,None,1,393.33503684655807,None,None,393.8346105246004,None,,,,,,,,,,,,,,,,,,,,,,,,,,,,,,,,,,,,,,,,,,,,,,,10_FF,10,35,F,2022-11-29_17h44.26.418,dynamic target,2022.1.3,120.10531140925652,
1,8,2,2,mix,0,64,64,64,,,,,,,None,394.8670518840845,None,393.8762470069596,394.8753778784667,394.3674967111001,None,1,[1.391311793911882],[1.899435419261863],394.8670518840845,None,[0 0 3 2 3 0 3 1],space,0,1.38694255574228,0.002518772853363771,None,396.2658542186073,None,1,397.6563154853029,None,None,398.15591482027446,None,,,,,,,,,,,,,,,,,,,,,,,,,,,,,,,,,,,,,,,,,,,,,,,10_FF,10,35,F,2022-11-29_17h44.26.418,dynamic target,2022.1.3,120.10531140925652,
0,1,4,2,mix,0,65,65,65,,,,,,,None,399.1883276364242,None,398.19751121368245,None,398.68872852595086,None,1,[0.009153430364676751],[0.5173941154534987],399.1883276364242,None,[2 1 0 0 2 3 0 0],space,0,4.831467783878907,0.002594140085420804,None,399.2049805873248,None,1,404.03415482545824,None,None,404.5337265792317,None,,,,,,,,,,,,,,,,,,,,,,,,,,,,,,,,,,,,,,,,,,,,,,,10_FF,10,35,F,2022-11-29_17h44.26.418,dynamic target,2022.1.3,120.10531140925652,
0,6,3,0,mix,0,66,66,66,,,,,,,None,405.56617531508164,None,404.5837413319641,None,405.0666146900039,None,1,[0.008737788102735067],[0.5172093855617277],405.56617531508164,None,[1 2 3 1 2 3 1 2],space,0,1.5578856980609999,0.002678166529221926,None,405.58282185174903,None,1,407.13981262744346,None,None,407.6393824569444,None,,,,,,,,,,,,,,,,,,,,,,,,,,,,,,,,,,,,,,,,,,,,,,,10_FF,10,35,F,2022-11-29_17h44.26.418,dynamic target,2022.1.3,120.10531140925652,
1,7,3,2,mix,0,67,67,67,,,,,,,None,408.6718257406974,None,407.69771935552126,None,408.1722545321354,None,1,[0.008628104729723418],[0.5170804594890797],408.6718257406974,None,[3 0 1 0 3 0 3 2],space,0,1.3478952745099377,0.0030453813342319336,None,408.68847965373425,None,0,410.0456407914389,None,None,410.545223128693,None,,,,,,,,,,,,,,,,,,,,,,,,,,,,,,,,,,,,,,,,,,,,,,,10_FF,10,35,F,2022-11-29_17h44.26.418,dynamic target,2022.1.3,120.10531140925652,
0,5,3,0,mix,0,68,68,68,,,,,,,None,411.57768020304866,None,410.59516956985317,411.5943142319629,411.0781019388305,None,2,"[0.008633236113382736, 1.8166049082974496]","[0.47481676141615026, 2.3240082153497497]",411.57768020304866,None,[1 3 3 3 3 0 2 0],space,0,3.0843097699071222,0.0025575789622962475,None,413.4010880462447,None,1,416.4900909730568,None,None,416.9896608025614,None,,,,,,,,,,,,,,,,,,,,,,,,,,,,,,,,,,,,,,,,,,,,,,,10_FF,10,35,F,2022-11-29_17h44.26.418,dynamic target,2022.1.3,120.10531140925652,
1,6,2,2,mix,0,69,69,69,,,,,,,None,418.02210248275514,None,417.0396268071272,None,417.5225341605983,None,1,[0.009343291643745033],[0.5175563955381222],418.02210248275514,None,[2 2 1 1 2 0 3 2],space,0,2.1573794226969767,0.002372207643929869,None,418.0387624893119,None,1,420.1952049764186,None,None,420.69478955865486,None,,,,,,,,,,,,,,,,,,,,,,,,,,,,,,,,,,,,,,,,,,,,,,,10_FF,10,35,F,2022-11-29_17h44.26.418,dynamic target,2022.1.3,120.10531140925652,
0,7,3,2,mix,0,70,70,70,,,,,,,None,421.71892160076095,None,420.74482611977874,421.74389701821565,421.21935071290864,None,3,"[1.1082462654703704, 2.4910309788174345, 2.9070613001749734]","[1.1169051585166017, 2.499392572190118, 3.414401747748343]",421.71892160076095,None,[2 0 1 1 1 1 1 0],space,0,2.058695174189779,0.0030989401748229284,None,424.6330770419845,None,1,426.68962074567753,None,None,427.1892332298288,None,,,,,,,,,,,,,,,,,,,,,,,,,,,,,,,,,,,,,,,,,,,,,,,10_FF,10,35,F,2022-11-29_17h44.26.418,dynamic target,2022.1.3,120.10531140925652,
0,8,4,2,mix,0,71,71,71,,,,,,,None,428.2133245415571,None,427.2225212679914,None,427.7137555779773,None,1,[0.008663062297273427],[0.5176211792822869],428.2133245415571,None,[2 3 0 3 2 2 1 3],space,0,2.9896398687560577,0.002606327128887642,None,428.22999449017516,None,1,431.21907009023926,None,None,431.7186389576076,None,,,,,,,,,,,,,,,,,,,,,,,,,,,,,,,,,,,,,,,,,,,,,,,10_FF,10,35,F,2022-11-29_17h44.26.418,dynamic target,2022.1.3,120.10531140925652,
1,1,1,2,mix,0,72,72,72,,,,,,,None,432.75108288278716,None,431.7686027171949,None,432.25151969201397,None,1,[0.008636443231807789],[0.5173020712209109],432.75108288278716,None,[2 2 2 0 2 1 3 1],space,0,3.33089146509883,0.0026884293074544985,None,432.7677358336841,None,1,436.0982015775153,None,None,436.59776948274737,None,,,,,,,,,,,,,,,,,,,,,,,,,,,,,,,,,,,,,,,,,,,,,,,10_FF,10,35,F,2022-11-29_17h44.26.418,dynamic target,2022.1.3,120.10531140925652,
0,1,3,0,mix,0,73,73,73,,,,,,,None,437.63021918073355,None,436.6561070227508,None,437.1306617627706,None,1,[0.009380173480167286],[0.5175461327635276],437.63021918073355,None,[2 0 2 1 3 3 2 3],space,0,2.499991477732692,0.0026486610622669104,None,437.64687598017554,None,1,440.1447156666982,None,None,440.6442877411813,None,,,,,,,,,,,,,,,,,,,,,,,,,,,,,,,,,,,,,,,,,,,,,,,10_FF,10,35,F,2022-11-29_17h44.26.418,dynamic target,2022.1.3,120.10531140925652,
0,4,2,0,mix,0,74,74,74,,,,,,,None,441.66841423497533,None,440.67758892852,None,441.16883285985386,None,1,[0.008623935478681233],[0.5089080859725073],441.66841423497533,None,[3 1 2 3 2 2 2 0],space,0,3.654572233885119,0.0028301838392508216,None,441.6767319870705,None,1,445.3319121532368,None,None,445.831482944874,None,,,,,,,,,,,,,,,,,,,,,,,,,,,,,,,,,,,,,,,,,,,,,,,10_FF,10,35,F,2022-11-29_17h44.26.418,dynamic target,2022.1.3,120.10531140925652,
0,5,4,2,mix,0,75,75,75,,,,,,,None,446.855601837804,None,445.8647953571199,None,446.35602998781906,None,1,[0.008805137542367447],[0.5175233622358064],446.855601837804,None,[0 1 2 2 1 3 3 0],space,0,2.6346031248249346,0.0024485370086040348,None,446.87225543012755,None,1,449.5116476046351,None,None,450.01121615129375,None,,,,,,,,,,,,,,,,,,,,,,,,,,,,,,,,,,,,,,,,,,,,,,,10_FF,10,35,F,2022-11-29_17h44.26.418,dynamic target,2022.1.3,120.10531140925652,
0,6,4,2,mix,0,76,76,76,,,,,,,None,451.0353363270697,None,450.05290202323886,None,450.5357468379443,None,1,[0.008662420874316012],[0.5175089302174456],451.0353363270697,None,[1 0 3 0 3 1 3 3],space,0,1.7655195326260582,0.002666941625648178,None,451.05200691710706,None,1,452.8171321582013,None,None,453.31670198770587,None,,,,,,,,,,,,,,,,,,,,,,,,,,,,,,,,,,,,,,,,,,,,,,,10_FF,10,35,F,2022-11-29_17h44.26.418,dynamic target,2022.1.3,120.10531140925652,
1,7,2,2,mix,0,77,77,77,,,,,,,None,454.3491449507492,None,453.3583371872155,None,453.8495743836065,None,1,[0.008140623063809471],[0.5168601306068012],454.3491449507492,None,[3 0 3 3 0 3 0 2],space,0,1.9724702514358796,0.002796509121253621,None,454.36580175018753,None,1,456.3390980178083,None,None,456.83866848873583,None,,,,,,,,,,,,,,,,,,,,,,,,,,,,,,,,,,,,,,,,,,,,,,,10_FF,10,35,F,2022-11-29_17h44.26.418,dynamic target,2022.1.3,120.10531140925652,
1,8,3,2,mix,0,78,78,78,,,,,,,None,457.87944802964194,None,456.8970143672377,457.8960907177716,457.37154954385187,None,4,"[2.3569719178485684, 2.7740990729507757, 2.923518937699555, 3.730716412032052]","[2.366473961745214, 2.782763418093964, 2.9399172435732908, 4.2307641980623885]",457.87944802964194,None,[2 2 2 0 1 1 3 0],space,0,1.9519957008633355,0.002702540616155602,None,461.6012316609085,None,1,463.5578807504389,None,None,464.05744929709397,None,,,,,,,,,,,,,,,,,,,,,,,,,,,,,,,,,,,,,,,,,,,,,,,10_FF,10,35,F,2022-11-29_17h44.26.418,dynamic target,2022.1.3,120.10531140925652,
1,1,2,2,mix,0,79,79,79,,,,,,,None,465.0815662657551,None,464.0907613886302,465.0898951465424,464.5819953779028,None,1,[0.8754346444256953],[1.3828761161566945],465.0815662657551,None,[1 1 1 0 3 1 2 2],space,0,1.7334522191049473,0.00315506471451954,None,465.9641476479337,None,1,467.69598141925235,None,None,468.1955448345201,None,,,,,,,,,,,,,,,,,,,,,,,,,,,,,,,,,,,,,,,,,,,,,,,10_FF,10,35,F,2022-11-29_17h44.26.418,dynamic target,2022.1.3,120.10531140925652,
1,6,2,0,mix,0,80,80,80,,,,,,,None,469.2279957191407,None,468.2371874103992,None,468.7284319831597,None,1,[0.00876376574524329],[0.5091066064669576],469.2279957191407,None,[0 1 0 3 2 3 3 0],space,0,1.324579860403901,0.0022901054690009914,None,469.2363202061788,None,1,470.5601815356058,None,None,471.05974879941493,None,,,,,,,,,,,,,,,,,,,,,,,,,,,,,,,,,,,,,,,,,,,,,,,10_FF,10,35,F,2022-11-29_17h44.26.418,dynamic target,2022.1.3,120.10531140925652,
1,8,3,0,mix,0,81,81,81,,,,,,,None,472.0921943281501,None,471.11810109215,None,471.5926404380152,None,1,[0.02477208628624794],[0.5248176273344143],472.0921943281501,None,[2 1 0 0 0 2 1 1],space,0,1.211799694752699,0.0031287663550756406,None,472.1171883468778,None,1,473.33279314805986,None,None,473.8323642604104,None,,,,,,,,,,,,,,,,,,,,,,,,,,,,,,,,,,,,,,,,,,,,,,,10_FF,10,35,F,2022-11-29_17h44.26.418,dynamic target,2022.1.3,120.10531140925652,
0,4,4,0,mix,0,82,82,82,,,,,,,None,474.8648049784715,None,473.8739901592853,None,474.36523344919624,None,1,[0.008924762976675993],[0.5175397185303154],474.8648049784715,None,[0 0 1 0 2 0 1 1],space,0,2.159391246696032,0.0027035027524107136,None,474.88146851285273,None,1,477.0379389018708,None,None,477.5375023171422,None,,,,,,,,,,,,,,,,,,,,,,,,,,,,,,,,,,,,,,,,,,,,,,,10_FF,10,35,F,2022-11-29_17h44.26.418,dynamic target,2022.1.3,120.10531140925652,
1,5,3,2,mix,0,83,83,83,,,,,,,None,478.56997574778507,None,477.57913879949774,478.578271915987,478.0703779201576,None,3,"[0.008777235634624958, 0.7673779195174575, 1.3500480746733956]","[0.21735556592102512, 0.967039825329266, 1.8575998712040018]",478.56997574778507,None,[0 3 3 0 2 1 3 0],space,0,3.689348919175245,0.002809016870742198,None,479.92711443567896,None,1,483.61560948357146,None,None,484.1151680881652,None,,,,,,,,,,,,,,,,,,,,,,,,,,,,,,,,,,,,,,,,,,,,,,,10_FF,10,35,F,2022-11-29_17h44.26.418,dynamic target,2022.1.3,120.10531140925652,
0,6,4,2,mix,0,84,84,84,,,,,,,None,485.1476129754774,None,484.1651834823242,None,484.64805555751445,None,1,[0.008657610200316412],[0.5174819904386823],485.1476129754774,None,[0 3 0 3 3 0 2 3],space,0,0.9797904941769957,0.0026723937189672142,None,485.16426688851425,None,0,486.1550906876255,None,None,486.6546515372014,None,,,,,,,,,,,,,,,,,,,,,,,,,,,,,,,,,,,,,,,,,,,,,,,10_FF,10,35,F,2022-11-29_17h44.26.418,dynamic target,2022.1.3,120.10531140925652,
0,5,4,1,mix,0,85,85,85,,,,,,,None,487.68707878537316,None,486.7046213903086,None,487.1875220088332,None,1,[0.0085726216166222],[0.5175753175208229],487.68707878537316,None,[2 0 1 0 2 1 0 2],space,0,2.167482159456995,0.0017920403224707115,None,487.70373879192994,None,1,489.87686918750114,None,None,490.37644350696644,None,,,,,,,,,,,,,,,,,,,,,,,,,,,,,,,,,,,,,,,,,,,,,,,10_FF,10,35,F,2022-11-29_17h44.26.418,dynamic target,2022.1.3,120.10531140925652,
1,6,1,2,mix,0,86,86,86,,,,,,,None,491.40887300012037,None,490.4180809514619,None,490.9092998672895,None,1,[0.00864349888797733],[0.5177417668528506],491.40887300012037,None,[1 1 0 0 1 2 2 0],space,0,3.102285014818335,0.002270542063342873,None,491.4255464765665,None,1,494.531201392143,None,None,495.03076673168323,None,,,,,,,,,,,,,,,,,,,,,,,,,,,,,,,,,,,,,,,,,,,,,,,10_FF,10,35,F,2022-11-29_17h44.26.418,dynamic target,2022.1.3,120.10531140925652,
0,7,2,2,mix,0,87,87,87,,,,,,,None,496.0632090533036,None,495.08911228947545,None,495.56364169327935,None,1,[0.009592484570021043],[0.5176269520889036],496.0632090533036,None,[2 3 3 0 1 1 3 0],space,0,2.015932769547362,0.0024507819944119547,None,496.0798716255522,None,1,498.0947940165461,None,None,498.5943680153017,None,,,,,,,,,,,,,,,,,,,,,,,,,,,,,,,,,,,,,,,,,,,,,,,10_FF,10,35,F,2022-11-29_17h44.26.418,dynamic target,2022.1.3,120.10531140925652,
0,6,3,1,mix,0,88,88,88,,,,,,,None,499.62680520553477,None,498.64431958784553,None,499.12723592124166,None,1,[0.00920410280014039],[0.5175224001031893],499.62680520553477,None,[0 1 0 3 1 1 3 3],space,0,1.891765737804235,0.0026127413620997686,None,499.64346585351086,None,1,501.53349608378994,None,None,502.03306719614045,None,,,,,,,,,,,,,,,,,,,,,,,,,,,,,,,,,,,,,,,,,,,,,,,10_FF,10,35,F,2022-11-29_17h44.26.418,dynamic target,2022.1.3,120.10531140925652,
0,7,4,2,mix,0,89,89,89,,,,,,,None,503.0571751848729,None,502.06637415628575,None,502.5576206533151,None,1,[0.009206347782310331],[0.5177064885756408],503.0571751848729,None,[1 1 0 3 1 2 1 3],space,0,2.749510891371756,0.0023625862959306687,None,503.07384545420064,None,1,505.82147170714234,None,None,506.32105051656833,None,,,,,,,,,,,,,,,,,,,,,,,,,,,,,,,,,,,,,,,,,,,,,,,10_FF,10,35,F,2022-11-29_17h44.26.418,dynamic target,2022.1.3,120.10531140925652,
1,8,3,2,mix,0,90,90,90,,,,,,,None,507.34515626032226,None,506.35435747671727,None,506.8455863346062,None,1,[0.009119434933381854],[0.5176436290967104],507.34515626032226,None,[2 3 1 3 2 1 3 0],space,0,2.6054270265631203,0.0024812495976220816,None,507.3618101733555,None,1,509.96789933247055,None,None,510.46746531343376,None,,,,,,,,,,,,,,,,,,,,,,,,,,,,,,,,,,,,,,,,,,,,,,,10_FF,10,35,F,2022-11-29_17h44.26.418,dynamic target,2022.1.3,120.10531140925652,
0,1,2,2,mix,0,91,91,91,,,,,,,None,511.49160697688785,None,510.50078734702765,None,510.9920306369386,None,1,[0.008649913121189456],[0.5177430496987654],511.49160697688785,None,[0 0 0 0 0 3 0 1],space,0,2.986105947409669,0.0022593171561311465,None,511.5082368365511,None,1,514.4973281514867,None,None,514.9969146579955,None,,,,,,,,,,,,,,,,,,,,,,,,,,,,,,,,,,,,,,,,,,,,,,,10_FF,10,35,F,2022-11-29_17h44.26.418,dynamic target,2022.1.3,120.10531140925652,
1,1,4,0,mix,0,92,92,92,,,,,,,None,516.0210149496525,None,515.0302110346602,516.029340302608,515.5214559281303,None,2,"[0.008838170841045212, 1.724145993062848]","[0.2834096520091407, 2.224576388056448]",516.0210149496525,None,[1 2 0 0 0 0 1 3],space,0,2.349761495432176,0.002250978650408797,None,517.7445349136287,None,1,520.0925095876737,None,None,520.5920765307732,None,,,,,,,,,,,,,,,,,,,,,,,,,,,,,,,,,,,,,,,,,,,,,,,10_FF,10,35,F,2022-11-29_17h44.26.418,dynamic target,2022.1.3,120.10531140925652,
1,2,1,2,mix,0,93,93,93,,,,,,,None,521.6161963858358,None,520.6253873394598,None,521.1166306293708,None,1,[0.008644140310934745],[0.5176878873025998],521.6161963858358,None,[1 3 2 2 1 3 3 0],space,0,2.4774739941385633,0.002487984540493926,None,521.6328538266971,None,1,524.1140495422478,None,None,524.6136129575192,None,,,,,,,,,,,,,,,,,,,,,,,,,,,,,,,,,,,,,,,,,,,,,,,10_FF,10,35,F,2022-11-29_17h44.26.418,dynamic target,2022.1.3,120.10531140925652,
0,1,3,1,mix,0,94,94,94,,,,,,,None,525.637745320335,None,524.6553267313757,None,525.1381625661525,None,1,[0.008629708288935944],[0.516828700870974],525.637745320335,None,[1 2 3 2 0 3 0 1],space,0,2.4879724890415673,0.0031935501065163407,None,525.6543851220595,None,1,528.1439254332654,None,None,528.6434939799204,None,,,,,,,,,,,,,,,,,,,,,,,,,,,,,,,,,,,,,,,,,,,,,,,10_FF,10,35,F,2022-11-29_17h44.26.418,dynamic target,2022.1.3,120.10531140925652,
0,2,1,2,mix,0,95,95,95,,,,,,,None,529.6675974786922,None,528.6767906772984,529.6759180209774,529.1680314015139,None,2,"[2.399142288839357, 2.807106071519229]","[2.7986363983291085, 3.314682242133131]",529.6675974786922,None,[2 0 2 0 3 0 3 1],space,0,2.380273678303638,0.0028657828261202667,None,532.4818374595015,None,1,534.8631157903656,None,None,535.3626859405798,None,,,,,,,,,,,,,,,,,,,,,,,,,,,,,,,,,,,,,,,,,,,,,,,10_FF,10,35,F,2022-11-29_17h44.26.418,dynamic target,2022.1.3,120.10531140925652,
1,3,1,2,mix,0,96,96,96,,,,,,,None,536.3868093234705,None,535.3959996356716,None,535.8872474155432,None,1,[0.008647347425721819],[0.5177392011573829],536.3868093234705,None,[3 2 2 1 1 3 1 3],space,0,2.393375389427092,0.002283370526129147,None,536.4034577844068,None,1,538.8013929147091,None,None,539.3009611406545,None,,,,,,,,,,,,,,,,,,,,,,,,,,,,,,,,,,,,,,,,,,,,,,,10_FF,10,35,F,2022-11-29_17h44.26.418,dynamic target,2022.1.3,120.10531140925652,
0,2,3,1,mix,0,97,97,97,,,,,,,None,540.3250784300253,None,539.3342879849224,None,539.8255104285781,None,1,[0.008753823683946393],[0.5175082887908502],540.3250784300253,None,[0 2 3 2 1 3 0 0],space,0,2.471710485606309,0.002562068922998151,None,540.3417313809259,None,1,542.8145994985352,None,None,543.3141850429078,None,,,,,,,,,,,,,,,,,,,,,,,,,,,,,,,,,,,,,,,,,,,,,,,10_FF,10,35,F,2022-11-29_17h44.26.418,dynamic target,2022.1.3,120.10531140925652,
1,4,1,0,mix,0,98,98,98,,,,,,,None,544.3382856552744,None,543.3474743639163,None,543.8387240680604,None,1,[0.008721431811864022],[0.517535869992571],544.3382856552744,None,[0 0 2 3 0 3 0 1],space,0,3.8020267778192647,0.002664375933818519,None,544.3549507932148,None,0,548.1683206833986,None,None,548.6679014170971,None,,,,,,,,,,,,,,,,,,,,,,,,,,,,,,,,,,,,,,,,,,,,,,,10_FF,10,35,F,2022-11-29_17h44.26.418,dynamic target,2022.1.3,120.10531140925652,
1,3,1,1,mix,0,99,99,99,,,,,,,None,549.700346625119,None,548.7262299771719,None,549.2007725301519,None,1,[0.00862201120617101],[0.5170968157799507],549.700346625119,None,[1 3 3 2 0 1 3 2],space,0,2.6796894058716134,0.00303608069953043,None,549.7169867475532,None,1,552.3980191567462,None,None,552.8975816098813,None,,,,,,,,,,,,,,,,,,,,,,,,,,,,,,,,,,,,,,,,,,,,,,,10_FF,10,35,F,2022-11-29_17h44.26.418,dynamic target,2022.1.3,120.10531140925652,
1,4,4,2,mix,0,100,100,100,,,,,,,None,553.9300354771185,None,552.9559175463255,553.9550198744982,553.4304668342484,None,3,"[0.00782183571573114, 0.24994435653206892, 1.224195061939099]","[0.049827681647002464, 0.25759942220611265, 1.7320723807642935]",553.9300354771185,None,[2 1 0 1 1 2 0 3],space,0,2.226111450821918,0.002528073495341232,None,555.1622967570256,None,1,557.3937203381829,None,None,557.8932843948772,None,,,,,,,,,,,,,,,,,,,,,,,,,,,,,,,,,,,,,,,,,,,,,,,10_FF,10,35,F,2022-11-29_17h44.26.418,dynamic target,2022.1.3,120.10531140925652,
0,5,3,2,mix,0,101,101,101,,,,,,,None,558.9173936664592,None,557.9265631324015,558.9257177365689,558.4178426627259,None,2,"[0.008663703720230842, 0.7841402330814162]","[0.4332871722399432, 1.291170231805154]",558.9173936664592,None,[0 3 1 3 0 3 0 1],space,0,1.7759978226931707,0.0030524369904014748,None,559.708379168369,None,1,561.4818509293909,None,None,561.9814441708426,None,,,,,,,,,,,,,,,,,,,,,,,,,,,,,,,,,,,,,,,,,,,,,,,10_FF,10,35,F,2022-11-29_17h44.26.418,dynamic target,2022.1.3,120.10531140925652,
1,6,4,2,mix,0,102,102,102,,,,,,,None,563.0138624390893,None,562.0313768214,None,562.5142934755058,None,1,[0.009235211826307932],[0.5175615269217815],563.0138624390893,None,[0 2 3 0 1 2 0 2],space,0,2.037085304484208,0.0024591204928583466,None,563.0305176349684,None,1,565.0704346861166,None,None,565.5699952149829,None,,,,,,,,,,,,,,,,,,,,,,,,,,,,,,,,,,,,,,,,,,,,,,,10_FF,10,35,F,2022-11-29_17h44.26.418,dynamic target,2022.1.3,120.10531140925652,
0,5,3,1,mix,0,103,103,103,,,,,,,None,566.5941102593715,None,565.6032996094364,None,566.0945538035412,None,1,[0.00860757918417221],[0.5175317007378908],566.5941102593715,None,[0 2 2 1 2 1 2 1],space,0,3.0170831621289835,0.002460082629113458,None,566.610765134541,None,1,569.633169406934,None,None,570.1327308979329,None,,,,,,,,,,,,,,,,,,,,,,,,,,,,,,,,,,,,,,,,,,,,,,,10_FF,10,35,F,2022-11-29_17h44.26.418,dynamic target,2022.1.3,120.10531140925652,
1,6,2,2,mix,0,104,104,104,,,,,,,None,571.1651745023992,None,570.1743587210767,None,570.6656023317009,None,1,[0.009086722348001786],[0.5176574196957517],571.1651745023992,None,[2 3 2 1 3 3 1 2],space,0,2.1579336123759276,0.002530639187170891,None,571.1818361125115,None,1,573.3383020115652,None,None,573.8378955737302,None,,,,,,,,,,,,,,,,,,,,,,,,,,,,,,,,,,,,,,,,,,,,,,,10_FF,10,35,F,2022-11-29_17h44.26.418,dynamic target,2022.1.3,120.10531140925652,
1,3,4,0,mix,0,105,105,105,,,,,,,None,574.8619881683044,None,573.8711893846994,None,574.3624192047246,None,1,[0.008657289487018716],[0.5176766623917501],574.8619881683044,None,[2 1 2 3 1 1 3 1],space,0,2.764953797326598,0.002453668392263353,None,574.8786590790551,None,1,577.6429065324446,None,None,578.1424949632222,None,,,,,,,,,,,,,,,,,,,,,,,,,,,,,,,,,,,,,,,,,,,,,,,10_FF,10,35,F,2022-11-29_17h44.26.418,dynamic target,2022.1.3,120.10531140925652,
1,4,4,2,mix,0,106,106,106,,,,,,,None,579.166612894016,None,578.1758006405253,None,578.6670452132821,None,1,[0.008565565964090638],[0.517616689317947],579.166612894016,None,[0 2 1 1 0 3 1 1],space,0,2.124041770446638,0.002382149705226766,None,579.1832664863396,None,1,581.306436425657,None,None,581.806020045757,None,,,,,,,,,,,,,,,,,,,,,,,,,,,,,,,,,,,,,,,,,,,,,,,10_FF,10,35,F,2022-11-29_17h44.26.418,dynamic target,2022.1.3,120.10531140925652,
1,5,2,2,mix,0,107,107,107,,,,,,,None,582.8301241859517,None,581.8393128945936,None,582.330549770275,None,1,[0.00870122697961051],[0.5176930186862592],582.8301241859517,None,[2 0 1 1 0 3 0 2],space,0,1.3727606878783263,0.002339174348890083,None,582.8467845132182,None,1,584.2205950739954,None,None,584.7201629792311,None,,,,,,,,,,,,,,,,,,,,,,,,,,,,,,,,,,,,,,,,,,,,,,,10_FF,10,35,F,2022-11-29_17h44.26.418,dynamic target,2022.1.3,120.10531140925652,
1,4,2,1,mix,0,108,108,108,,,,,,,None,585.7526049801381,None,584.7701046097172,585.7692588931714,585.2530353751317,None,2,"[0.009248361006029882, 0.8671686231173226]","[0.34161367976412294, 1.3746059255972796]",585.7526049801381,None,[2 3 2 3 2 1 2 3],space,0,2.680360976006341,0.003211189243302215,None,586.6268619714901,None,1,589.3078780243886,None,None,589.8074465710473,None,,,,,,,,,,,,,,,,,,,,,,,,,,,,,,,,,,,,,,,,,,,,,,,10_FF,10,35,F,2022-11-29_17h44.26.418,dynamic target,2022.1.3,120.10531140925652,
1,5,4,2,mix,0,109,109,109,,,,,,,None,590.8315650470489,None,589.8407500033682,None,590.331995217548,None,1,[0.008630991131212795],[0.5086604966018058],590.8315650470489,None,[0 1 3 0 3 2 1 1],space,0,2.3225757334876107,0.002958147775643738,None,590.8398908169365,None,1,593.1628868664084,None,None,593.6624595823181,None,,,,,,,,,,,,,,,,,,,,,,,,,,,,,,,,,,,,,,,,,,,,,,,10_FF,10,35,F,2022-11-29_17h44.26.418,dynamic target,2022.1.3,120.10531140925652,
1,6,3,2,mix,0,110,110,110,,,,,,,None,594.68657494742,None,593.7041290979723,None,594.1870053424136,None,1,[0.0086325946940633],[0.5171131720780977],594.68657494742,None,[3 1 3 2 1 0 2 0],space,0,2.059435055900394,0.003026138641871512,None,594.7032269361844,None,1,596.7597873168816,None,None,597.2593587499417,None,,,,,,,,,,,,,,,,,,,,,,,,,,,,,,,,,,,,,,,,,,,,,,,10_FF,10,35,F,2022-11-29_17h44.26.418,dynamic target,2022.1.3,120.10531140925652,
0,7,3,2,mix,0,111,111,111,,,,,,,None,598.2918045993902,None,597.3093199438372,598.3084668509255,597.7922337115378,None,2,"[0.00952160730594187, 0.8248908137284161]","[0.49146361879320466, 1.3249142256754567]",598.2918045993902,None,[3 0 0 0 3 1 1 2],space,0,2.3346146063013293,0.002723066158068832,None,599.1160918338464,None,1,601.4557478898787,None,None,601.9553218886307,None,,,,,,,,,,,,,,,,,,,,,,,,,,,,,,,,,,,,,,,,,,,,,,,10_FF,10,35,F,2022-11-29_17h44.26.418,dynamic target,2022.1.3,120.10531140925652,
1,6,1,1,mix,0,112,112,112,,,,,,,None,602.987755871749,None,602.0052526149229,None,602.4881853046063,None,1,[0.008633877536340151],[0.5177565195845091],602.987755871749,None,[1 2 1 1 2 3 2 2],space,0,1.7404697100719204,0.0021053755772300065,None,603.0044097847822,None,1,604.7445759647162,None,None,605.2441477184897,None,,,,,,,,,,,,,,,,,,,,,,,,,,,,,,,,,,,,,,,,,,,,,,,10_FF,10,35,F,2022-11-29_17h44.26.418,dynamic target,2022.1.3,120.10531140925652,
0,7,3,2,mix,0,113,113,113,,,,,,,None,606.2682655530683,None,605.2774517922335,None,605.7686780844269,None,1,[0.008611748435214395],[0.5088214938368765],606.2682655530683,None,[2 3 3 0 1 2 2 3],space,0,2.3406869601240032,0.0026845807624340523,None,606.2766041514187,None,1,608.6162614902933,None,None,609.1158091906967,None,,,,,,,,,,,,,,,,,,,,,,,,,,,,,,,,,,,,,,,,,,,,,,,10_FF,10,35,F,2022-11-29_17h44.26.418,dynamic target,2022.1.3,120.10531140925652,
0,8,2,2,mix,0,114,114,114,,,,,,,None,610.1399268007772,None,609.1491206408064,None,609.6403652135632,None,1,[0.009477669813350076],[0.5175349078563158],610.1399268007772,None,[2 0 2 3 0 3 1 0],space,0,3.2127730545216764,0.0024408399331150576,None,610.1565829587962,None,1,613.3704786877497,None,None,613.8700594214482,None,,,,,,,,,,,,,,,,,,,,,,,,,,,,,,,,,,,,,,,,,,,,,,,10_FF,10,35,F,2022-11-29_17h44.26.418,dynamic target,2022.1.3,120.10531140925652,
0,1,2,2,mix,0,115,115,115,,,,,,,None,614.8941651652021,None,613.9033506667256,614.9025126472625,614.3945933152136,None,3,"[0.008641895328764804, 0.10849257199879503, 1.3498832288969425]","[0.07514401555090444, 0.11745261325268075, 1.857788770346815]",614.8941651652021,None,[0 3 1 2 2 3 3 2],space,0,3.4057567822528654,0.002632625481055584,None,616.2513384899466,None,1,619.6567285618694,None,None,620.1562958256822,None,,,,,,,,,,,,,,,,,,,,,,,,,,,,,,,,,,,,,,,,,,,,,,,10_FF,10,35,F,2022-11-29_17h44.26.418,dynamic target,2022.1.3,120.10531140925652,
1,8,1,1,mix,0,116,116,116,,,,,,,None,621.188750655052,None,620.2145868624975,None,620.6891714286976,None,1,[0.00799886852837517],[0.5168524335276743],621.188750655052,None,[0 0 2 3 1 2 1 2],space,0,1.6989260095906502,0.0025585410949133802,None,621.2053949467372,None,1,622.9039353240114,None,None,623.4035029085338,None,,,,,,,,,,,,,,,,,,,,,,,,,,,,,,,,,,,,,,,,,,,,,,,10_FF,10,35,F,2022-11-29_17h44.26.418,dynamic target,2022.1.3,120.10531140925652,
1,1,4,2,mix,0,117,117,117,,,,,,,None,624.4276157079403,None,623.4451862147871,624.444267375995,623.9280464236472,None,2,"[0.009212441302224761, 1.4001772252413502]","[0.20110703237514826, 1.9074795081323828]",624.4276157079403,None,[2 0 3 2 0 0 0 3],space,0,1.9181849989763577,0.002836598072462948,None,625.8347376226156,None,1,627.7580801689255,None,None,628.2576682789899,None,,,,,,,,,,,,,,,,,,,,,,,,,,,,,,,,,,,,,,,,,,,,,,,10_FF,10,35,F,2022-11-29_17h44.26.418,dynamic target,2022.1.3,120.10531140925652,
0,2,2,2,mix,0,118,118,118,,,,,,,None,629.2817797955504,None,628.2909556757295,629.2900948857387,628.7821989656404,None,2,"[0.00862553903425578, 0.7252437889401335]","[0.2832816880727478, 1.2329575448384276]",629.2817797955504,None,[3 1 0 1 2 2 1 1],space,0,5.594331366624829,0.0030703968404850457,None,630.0144846196308,None,1,635.6096500202366,None,None,636.1092166426228,None,,,,,,,,,,,,,,,,,,,,,,,,,,,,,,,,,,,,,,,,,,,,,,,10_FF,10,35,F,2022-11-29_17h44.26.418,dynamic target,2022.1.3,120.10531140925652,
0,3,2,2,mix,0,119,119,119,,,,,,,None,637.1333364976854,None,636.1425367519478,637.1416628127809,636.6337688169515,None,2,"[0.009198650699545396, 0.7834584001720941]","[0.10018325461714994, 1.291254258245317]",637.1333364976854,None,[1 1 0 0 0 3 2 2],space,0,3.0283455921089626,0.003018441559106577,None,637.9243383558896,None,1,640.9550452107178,None,space,641.4629414515257,None,1.8138722615258303,,,,,,,,,,,,,,,,,,,,,,,,,,,,,,,,,,,,,,,,,,,,,,10_FF,10,35,F,2022-11-29_17h44.26.418,dynamic target,2022.1.3,120.10531140925652,
1,4,4,2,mix,0,120,120,120,,,,,,,None,644.3188133285184,None,643.3447046983601,644.343790670242,643.8192482134764,None,2,"[0.016943194917985238, 0.4247017221568967]","[0.27476005960124894, 0.924760412384785]",644.3188133285184,None,[3 2 2 1 2 2 1 0],space,0,2.7199271686404245,0.002682656493561808,None,644.7434477012357,None,1,647.466099819565,None,None,647.9656680455104,None,,,,,,,,,,,,,,,,,,,,,,,,,,,,,,,,,,,,,,,,,,,,,,,10_FF,10,35,F,2022-11-29_17h44.26.418,dynamic target,2022.1.3,120.10531140925652,
1,5,2,2,mix,0,121,121,121,,,,,,,None,648.9981177434966,None,648.0322809074605,649.0314371151835,648.4985474970708,None,5,"[0.008665627989103086, 1.599300014815526, 1.7246668287298235, 2.066083270845411, 2.223919570657017]","[0.21674332743350533, 1.6168018893731642, 1.7581741374269768, 2.0907636336087307, 2.7321596143228817]",648.9981177434966,None,[1 0 0 0 2 2 0 2],space,0,1.2577836476230004,0.002737818893365329,None,651.2295240062267,None,1,652.4867799462882,None,None,652.9863443236922,None,,,,,,,,,,,,,,,,,,,,,,,,,,,,,,,,,,,,,,,,,,,,,,,10_FF,10,35,F,2022-11-29_17h44.26.418,dynamic target,2022.1.3,120.10531140925652,
0,6,1,2,mix,0,122,122,122,,,,,,,None,654.0104606509267,None,653.01965320811,None,653.5108997051357,None,1,[0.009240984636562644],[0.5175275314868486],654.0104606509267,None,[1 0 0 2 3 0 3 1],space,0,1.6441561618667038,0.002491191655281,None,654.0271331652366,None,1,655.6756909571486,None,None,656.1752611073665,None,,,,,,,,,,,,,,,,,,,,,,,,,,,,,,,,,,,,,,,,,,,,,,,10_FF,10,35,F,2022-11-29_17h44.26.418,dynamic target,2022.1.3,120.10531140925652,
0,7,4,2,mix,0,123,123,123,,,,,,,None,657.2077066361016,None,656.2252261497997,None,656.7081460110203,None,1,[0.009336877410532907],[0.517407906056178],657.2077066361016,None,[1 1 0 1 1 1 3 3],space,0,2.1906981529609766,0.002487984540493926,None,657.2243794711212,None,1,659.4141416506245,None,None,659.9137159700898,None,,,,,,,,,,,,,,,,,,,,,,,,,,,,,,,,,,,,,,,,,,,,,,,10_FF,10,35,F,2022-11-29_17h44.26.418,dynamic target,2022.1.3,120.10531140925652,
0,8,3,2,mix,0,124,124,124,,,,,,,None,660.9378239588259,None,659.9470181195647,None,660.4382626923216,None,1,[0.00861463484397973],[0.5177731965923158],660.9378239588259,None,[2 0 1 1 0 0 0 3],space,0,3.275677111072582,0.0021457852417370304,None,660.9544775511495,None,1,664.2349834801425,None,None,664.7345536303568,None,,,,,,,,,,,,,,,,,,,,,,,,,,,,,,,,,,,,,,,,,,,,,,,10_FF,10,35,F,2022-11-29_17h44.26.418,dynamic target,2022.1.3,120.10531140925652,
1,1,3,2,mix,0,125,125,125,,,,,,,None,665.7669991590919,None,664.7928520435416,None,665.2674263469708,None,1,[0.008647347425721819],[0.5175676204416959],665.7669991590919,None,[1 2 3 2 0 2 0 3],space,0,3.1827079436443455,0.002478042479197029,None,665.7836537135518,None,1,668.9642412957255,None,None,669.463812408076,None,,,,,,,,,,,,,,,,,,,,,,,,,,,,,,,,,,,,,,,,,,,,,,,10_FF,10,35,F,2022-11-29_17h44.26.418,dynamic target,2022.1.3,120.10531140925652,
0,2,3,2,mix,0,126,126,126,,,,,,,None,670.4962547296927,None,669.5054421554887,None,669.9966902560736,None,1,[0.008613031284767203],[0.51768339733826],670.4962547296927,None,[1 1 0 3 1 1 0 1],space,0,2.1487404137733392,0.001969714561710134,None,670.5129259611567,None,1,672.6610565651899,None,None,673.1606260739812,None,,,,,,,,,,,,,,,,,,,,,,,,,,,,,,,,,,,,,,,,,,,,,,,10_FF,10,35,F,2022-11-29_17h44.26.418,dynamic target,2022.1.3,120.10531140925652,
1,3,1,2,mix,0,127,127,127,,,,,,,None,674.1930683956016,None,673.2189709903505,None,673.6934984698855,None,1,[0.008658893042593263],[0.5175224001031893],674.1930683956016,None,[0 1 0 2 2 0 0 0],space,0,4.148275381925487,0.0023600206077389885,None,674.2097229500578,None,0,678.3644784940407,None,None,678.8640451164268,None,,,,,,,,,,,,,,,,,,,,,,,,,,,,,,,,,,,,,,,,,,,,,,,10_FF,10,35,F,2022-11-29_17h44.26.418,dynamic target,2022.1.3,120.10531140925652,
0,8,4,0,mix,0,128,128,128,,,,,,,None,679.8964861551976,None,678.9223791285985,None,679.3969184744637,None,1,[0.008694812742760405],[0.5175105337730201],679.8964861551976,None,[1 2 3 2 3 0 1 1],space,0,3.020441333512281,0.0025800287767197005,None,679.9131426339263,None,1,682.9438652036224,None,None,683.4434324674315,None,,,,,,,,,,,,,,,,,,,,,,,,,,,,,,,,,,,,,,,,,,,,,,,10_FF,10,35,F,2022-11-29_17h44.26.418,dynamic target,2022.1.3,120.10531140925652,
0,1,2,2,mix,0,129,129,129,,,,,,,None,684.4758757511845,None,683.4850615734249,None,683.9763045426225,None,1,[0.009192877892928664],[0.5174152824220073],684.4758757511845,None,[1 0 0 3 0 3 0 0],space,0,3.288450413496321,0.0026002336053352337,None,684.492530626354,None,1,687.7813699261023,None,None,688.2809525840697,None,,,,,,,,,,,,,,,,,,,,,,,,,,,,,,,,,,,,,,,,,,,,,,,10_FF,10,35,F,2022-11-29_17h44.26.418,dynamic target,2022.1.3,120.10531140925652,
1,6,1,0,mix,0,130,130,130,,,,,,,None,689.3133742839294,None,688.3392676742551,None,688.8054807050248,None,1,[0.007469052932719933],[0.5152738909309846],689.3133742839294,None,[0 2 3 1 2 3 0 0],space,0,2.0440630272132694,0.003160196098178858,None,689.3217045437777,None,1,691.3699411750749,None,None,691.8695286437163,None,,,,,,,,,,,,,,,,,,,,,,,,,,,,,,,,,,,,,,,,,,,,,,,10_FF,10,35,F,2022-11-29_17h44.26.418,dynamic target,2022.1.3,120.10531140925652,
0,7,4,2,mix,0,131,131,131,,,,,,,None,692.9019584575799,None,691.919515494541,692.9185995421503,692.4024087366961,None,5,"[0.009333028872788418, 0.3748903968044033, 0.45037821521327714, 0.8669094881261117, 1.066612124312087]","[0.3665814001360559, 0.42483930744128884, 0.458146812801715, 0.9424511860888742, 1.574291884779086]",692.9019584575799,None,[1 0 0 2 0 1 3 2],space,0,2.332945943740924,0.002962958453281317,None,693.9760316170323,None,1,696.3073466052338,None,None,696.8069151518924,None,,,,,,,,,,,,,,,,,,,,,,,,,,,,,,,,,,,,,,,,,,,,,,,10_FF,10,35,F,2022-11-29_17h44.26.418,dynamic target,2022.1.3,120.10531140925652,
0,6,2,1,mix,0,132,132,132,,,,,,,None,697.8393612258354,None,696.8652533333152,None,697.331464439816,None,1,[0.008663703720230842],[0.5164717488369206],697.8393612258354,None,[2 1 3 2 3 3 3 2],space,0,1.9334248944760475,0.0027775871349149384,None,697.8476879578557,None,0,699.7876828136395,None,None,700.2872529638538,None,,,,,,,,,,,,,,,,,,,,,,,,,,,,,,,,,,,,,,,,,,,,,,,10_FF,10,35,F,2022-11-29_17h44.26.418,dynamic target,2022.1.3,120.10531140925652,
0,5,2,1,mix,0,133,133,133,,,,,,,None,701.3197004168615,None,700.3455965973772,701.3446771171621,700.8201247183351,None,2,"[0.00865312023597653, 0.8420687695506786]","[0.4165639854945766, 1.349956992569787]",701.3197004168615,None,[3 0 0 1 3 0 1 1],space,0,3.4029858338508348,0.0026691866041801404,None,702.1689659551776,None,1,705.5826897185616,None,None,706.0822589066432,None,,,,,,,,,,,,,,,,,,,,,,,,,,,,,,,,,,,,,,,,,,,,,,,10_FF,10,35,F,2022-11-29_17h44.26.418,dynamic target,2022.1.3,120.10531140925652,
1,6,3,2,mix,0,134,134,134,,,,,,,None,707.1063733096089,None,706.115587033757,707.1147002661273,706.606806270298,None,4,"[0.008606937761214795, 0.6175154727316112, 0.733751626808953, 0.9252392348316789]","[0.500171580715687, 0.7252999134725542, 0.9083191311510745, 1.4329202781445929]",707.1063733096089,None,[2 0 2 2 3 1 1 1],space,0,2.573481583462126,0.002778549267532071,None,708.0389048852703,None,1,710.6116875011612,None,None,711.1112560478199,None,,,,,,,,,,,,,,,,,,,,,,,,,,,,,,,,,,,,,,,,,,,,,,,10_FF,10,35,F,2022-11-29_17h44.26.418,dynamic target,2022.1.3,120.10531140925652,
1,7,4,2,mix,0,135,135,135,,,,,,,None,712.1437012558417,None,711.1696000020529,None,711.6441611563059,None,1,[0.009297750591940712],[0.5175137408878072],712.1437012558417,None,[2 2 3 3 2 2 2 1],space,0,2.931733782101219,0.002513000050385017,None,712.1603558102979,None,1,715.0911609953073,None,None,715.5907327490808,None,,,,,,,,,,,,,,,,,,,,,,,,,,,,,,,,,,,,,,,,,,,,,,,10_FF,10,35,F,2022-11-29_17h44.26.418,dynamic target,2022.1.3,120.10531140925652,
0,6,1,1,mix,0,136,136,136,,,,,,,None,716.6231728257189,None,715.6323660243215,None,716.123619577007,None,1,[0.00860501349234255],[0.5177780072626774],716.6231728257189,None,[2 3 2 1 0 2 2 2],space,0,2.068069254150032,0.0022365466284099966,None,716.6398293044476,None,1,718.7130554645082,None,None,719.2126102205642,None,,,,,,,,,,,,,,,,,,,,,,,,,,,,,,,,,,,,,,,,,,,,,,,10_FF,10,35,F,2022-11-29_17h44.26.418,dynamic target,2022.1.3,120.10531140925652,
0,7,1,2,mix,0,137,137,137,,,,,,,None,720.2450535043172,None,719.2709041437847,720.2700292424852,719.7454858235833,None,2,"[0.008637726077722618, 0.5922068359031982]","[0.0422781300949282, 1.0999407966337458]",720.2450535043172,None,[3 1 3 1 1 2 3 1],space,0,2.534570283954963,0.002604723569675116,None,720.8445420975695,None,1,723.384016566677,None,None,723.8835860754683,None,,,,,,,,,,,,,,,,,,,,,,,,,,,,,,,,,,,,,,,,,,,,,,,10_FF,10,35,F,2022-11-29_17h44.26.418,dynamic target,2022.1.3,120.10531140925652,
1,8,3,2,mix,0,138,138,138,,,,,,,None,724.916032887053,None,723.9252203128453,None,724.4164680927206,None,1,[0.008560113863495644],[0.5173274074368237],724.916032887053,None,[0 0 1 2 1 2 1 0],space,0,2.2542859666900767,0.00245014057145454,None,724.9326807065663,None,1,727.1890707252496,None,None,727.6886495346793,None,,,,,,,,,,,,,,,,,,,,,,,,,,,,,,,,,,,,,,,,,,,,,,,10_FF,10,35,F,2022-11-29_17h44.26.418,dynamic target,2022.1.3,120.10531140925652,
1,1,1,2,mix,0,139,139,139,,,,,,,None,728.7127555991428,None,727.7219600226526,728.721082234948,728.2131959361977,None,3,"[0.008628104729723418, 0.6670769637348712, 0.9002946056934888]","[0.42482647897850256, 0.6759949917686754, 1.40811868639139]",728.7127555991428,None,[0 3 1 0 3 1 1 0],space,0,2.606311549214297,0.0026967678022629116,None,729.6203098330807,None,0,732.2347246658646,None,None,732.7342867982901,None,,,,,,,,,,,,,,,,,,,,,,,,,,,,,,,,,,,,,,,,,,,,,,,10_FF,10,35,F,2022-11-29_17h44.26.418,dynamic target,2022.1.3,120.10531140925652,
0,2,1,2,mix,0,140,140,140,,,,,,,None,733.7584072947757,None,732.7675969655538,None,733.2588386519055,None,1,[0.0088275873567909],[0.5175875045606517],733.7584072947757,None,[2 0 1 1 1 2 3 3],space,0,2.115728283821227,0.002597347200207878,None,733.7750602456763,None,1,735.8899205469024,None,None,736.3894836414605,None,,,,,,,,,,,,,,,,,,,,,,,,,,,,,,,,,,,,,,,,,,,,,,,10_FF,10,35,F,2022-11-29_17h44.26.418,dynamic target,2022.1.3,120.10531140925652,
0,3,3,2,mix,0,141,141,141,,,,,,,None,737.4135967615803,None,736.4227877152043,737.4219163417329,736.9140303636923,None,3,"[0.008698019864823436, 0.8671984492975753, 1.3328248985126265]","[0.1585845200206677, 1.0500701396304066, 1.8415007892726862]",737.4135967615803,None,[3 2 1 0 2 1 3 3],space,0,3.616313903239643,0.0023176866707217414,None,738.7541206632559,None,1,742.3759820991581,None,None,742.8755503251035,None,,,,,,,,,,,,,,,,,,,,,,,,,,,,,,,,,,,,,,,,,,,,,,,10_FF,10,35,F,2022-11-29_17h44.26.418,dynamic target,2022.1.3,120.10531140925652,
0,7,4,0,mix,0,142,142,142,,,,,,,None,743.8996688973239,None,742.9088617752132,743.907994891706,743.4000980094715,None,4,"[0.008730411736905808, 0.8833745020165225, 1.0169185001213918, 2.3155237894279708]","[0.09183737611965626, 0.900756751139852, 1.0413118259857583, 2.8237089914073294]",743.8996688973239,None,[3 3 0 0 2 2 0 1],space,0,2.147632355121459,0.00265218889398966,None,746.2226716817386,None,1,748.3708154349515,None,None,748.8703839816066,None,,,,,,,,,,,,,,,,,,,,,,,,,,,,,,,,,,,,,,,,,,,,,,,10_FF,10,35,F,2022-11-29_17h44.26.418,dynamic target,2022.1.3,120.10531140925652,
0,8,2,2,mix,0,143,143,143,,,,,,,None,749.8945035159595,None,748.9036951110065,None,749.3949409666129,None,1,[0.00866883510389016],[0.5175310593185714],749.8945035159595,None,[1 3 2 0 0 1 2 0],space,0,2.442531821652665,0.002384394683758728,None,749.9111599946882,None,1,752.3590562226709,None,None,752.858619317229,None,,,,,,,,,,,,,,,,,,,,,,,,,,,,,,,,,,,,,,,,,,,,,,,10_FF,10,35,F,2022-11-29_17h44.26.418,dynamic target,2022.1.3,120.10531140925652,
1,1,2,2,mix,0,144,144,144,,,,,,,None,753.8827321166391,None,752.8919211459906,753.8910642045412,753.3831695672889,None,2,"[0.008680701434059301, 0.7586792582333146]","[0.4165630233619595, 1.2664545907609863]",753.8827321166391,None,[0 2 2 0 2 0 1 0],space,0,2.072613417105458,0.00251171719719423,None,754.6487534260013,None,1,756.7219507220179,None,None,757.2215208722322,None,,,,,,,,,,,,,,,,,,,,,,,,,,,,,,,,,,,,,,,,,,,,,,,10_FF,10,35,F,2022-11-29_17h44.26.418,dynamic target,2022.1.3,120.10531140925652,
1,2,3,2,mix,0,145,145,145,,,,,,,None,758.253966080254,None,757.2715199100967,None,757.754409303714,None,1,[0.008686153531016316],[0.5170653860441234],758.253966080254,None,[0 3 0 1 2 3 0 3],space,0,5.0593539158617205,0.003107599390204996,None,758.2706180690184,None,1,763.3329374682871,None,None,763.8324912622105,None,,,,,,,,,,,,,,,,,,,,,,,,,,,,,,,,,,,,,,,,,,,,,,,10_FF,10,35,F,2022-11-29_17h44.26.418,dynamic target,2022.1.3,120.10531140925652,
1,3,3,2,mix,0,146,146,146,,,,,,,None,764.8566088722946,None,763.8658043158794,None,764.3570395880015,None,1,[0.008640933192509692],[0.5175663375957811],764.8566088722946,None,[2 3 1 2 0 0 3 3],space,0,1.9919085827605159,0.0024995301573653705,None,764.8732717652529,None,1,766.8632148902543,None,None,767.362783436913,None,,,,,,,,,,,,,,,,,,,,,,,,,,,,,,,,,,,,,,,,,,,,,,,10_FF,10,35,F,2022-11-29_17h44.26.418,dynamic target,2022.1.3,120.10531140925652,
1,4,3,2,mix,0,147,147,147,,,,,,,None,768.3952296070711,None,767.4211312396837,None,767.8956561535233,None,1,[0.00957484542959719],[0.5177122613822576],768.3952296070711,None,[0 0 0 0 1 3 1 2],space,0,1.6040072362193314,0.0021457852417370304,None,768.4118799922762,None,0,770.0271559357607,None,None,770.5267235202831,None,,,,,,,,,,,,,,,,,,,,,,,,,,,,,,,,,,,,,,,,,,,,,,,10_FF,10,35,F,2022-11-29_17h44.26.418,dynamic target,2022.1.3,120.10531140925652,
1,5,3,2,mix,0,148,148,148,,,,,,,None,771.5591652004805,None,770.5683600026423,None,771.0596020097073,None,1,[0.008685191398399184],[0.5177674237820611],771.5591652004805,None,[2 1 0 0 2 1 1 3],space,0,4.135776608643937,0.0022112104124971665,None,771.5758168685315,None,1,775.7139188201909,None,None,776.2135027610042,None,,,,,,,,,,,,,,,,,,,,,,,,,,,,,,,,,,,,,,,,,,,,,,,10_FF,10,35,F,2022-11-29_17h44.26.418,dynamic target,2022.1.3,120.10531140925652,
1,6,4,2,mix,0,149,149,149,,,,,,,None,777.2459319334484,None,776.2718370938892,None,776.7463693840982,None,1,[0.008630670421553077],[0.5170519161547418],777.2459319334484,None,[2 2 0 2 2 3 2 2],space,0,1.3944423969915078,0.0030533991266565863,None,777.2625832807898,None,1,778.6613785596564,None,None,779.160949672007,None,,,,,,,,,,,,,,,,,,,,,,,,,,,,,,,,,,,,,,,,,,,,,,,10_FF,10,35,F,2022-11-29_17h44.26.418,dynamic target,2022.1.3,120.10531140925652,
0,7,3,2,mix,0,150,150,150,,,,,,,None,780.193406104936,None,779.2025845508069,None,779.693821747198,None,1,[0.009322766101831803],[0.5173723070656706],780.193406104936,None,[0 1 3 1 1 0 0 2],space,0,3.9019130534798023,0.0024270493304356933,None,780.2100459066605,None,1,784.1150123185325,None,None,784.6145972214821,None,,,,,,,,,,,,,,,,,,,,,,,,,,,,,,,,,,,,,,,,,,,,,,,10_FF,10,35,F,2022-11-29_17h44.26.418,dynamic target,2022.1.3,120.10531140925652,
0,8,4,2,mix,0,151,151,151,,,,,,,None,785.6386971924258,None,784.6562744342154,785.6553571989825,785.1391256631505,None,2,"[0.008949137063609669, 0.633417637727689]","[0.3835675704103778, 1.133418599863944]",785.6386971924258,None,[3 1 0 0 3 1 3 2],space,0,3.296324525206728,0.0028349945168884005,None,786.2714862353787,None,1,789.5686595472944,None,None,790.0682162276229,None,,,,,,,,,,,,,,,,,,,,,,,,,,,,,,,,,,,,,,,,,,,,,,,10_FF,10,35,F,2022-11-29_17h44.26.418,dynamic target,2022.1.3,120.10531140925652,
1,1,2,2,mix,0,152,152,152,,,,,,,None,791.0923373655314,None,790.1015347333887,791.100657587107,790.5927664776827,None,6,"[0.008675570050399983, 0.34996725534438156, 0.4331800545587612, 0.4664917291702295, 0.9333554838158307, 1.30049492217222]","[0.28328617803708767, 0.35840838520016405, 0.4415531935519539, 0.4748247792085749, 0.9415733983842074, 1.8079620508360676]",791.0923373655314,None,[0 2 2 3 3 0 2 1],space,0,2.383111976148939,0.0022939540140214376,None,792.3995505547355,None,1,794.7808211885167,None,None,795.2804012807923,None,,,,,,,,,,,,,,,,,,,,,,,,,,,,,,,,,,,,,,,,,,,,,,,10_FF,10,35,F,2022-11-29_17h44.26.418,dynamic target,2022.1.3,120.10531140925652,
1,2,3,2,mix,0,153,153,153,,,,,,,None,796.3128468095274,None,795.3387269544655,None,795.813268224596,None,1,[0.009359647934616078],[0.5174412600608775],796.3128468095274,None,[2 0 0 3 1 2 2 1],space,0,5.077538264748,0.0021374467396526597,None,796.3294882148075,None,1,801.4084406808579,None,None,801.9080150003232,None,,,,,,,,,,,,,,,,,,,,,,,,,,,,,,,,,,,,,,,,,,,,,,,10_FF,10,35,F,2022-11-29_17h44.26.418,dynamic target,2022.1.3,120.10531140925652,
1,3,1,2,mix,0,154,154,154,,,,,,,None,802.9404592462124,None,801.9496473134313,None,802.440903431805,None,1,[0.008632915403723018],[0.517729259099724],802.9404592462124,None,[2 0 2 1 0 3 3 0],space,0,3.4088965490191185,0.0022849740853416733,None,802.9571073864354,None,1,806.370837243343,None,None,806.8704000171878,None,,,,,,,,,,,,,,,,,,,,,,,,,,,,,,,,,,,,,,,,,,,,,,,10_FF,10,35,F,2022-11-29_17h44.26.418,dynamic target,2022.1.3,120.10531140925652,
1,4,1,2,mix,0,155,155,155,,,,,,,None,807.9028474701954,None,806.928760007002,None,807.4032746580742,None,1,[0.008764407168200705],[0.517295336274401],807.9028474701954,None,[0 0 0 2 0 2 2 3],space,0,2.7677026166238647,0.0026050442829728127,None,807.9194972139776,None,0,810.7004383486419,None,None,811.2000030467592,None,,,,,,,,,,,,,,,,,,,,,,,,,,,,,,,,,,,,,,,,,,,,,,,10_FF,10,35,F,2022-11-29_17h44.26.418,dynamic target,2022.1.3,120.10531140925652,
0,5,4,2,mix,0,156,156,156,,,,,,,None,812.2241186363593,None,811.2333132140229,None,811.7245600317619,None,1,[0.008661138024763204],[0.5088272666434932],812.2241186363593,None,[0 1 3 3 2 1 3 3],space,0,3.1902764171791205,0.0027044648850278463,None,812.2324553104372,None,1,815.4213647177457,None,None,815.9209351886697,None,,,,,,,,,,,,,,,,,,,,,,,,,,,,,,,,,,,,,,,,,,,,,,,10_FF,10,35,F,2022-11-29_17h44.26.418,dynamic target,2022.1.3,120.10531140925652,
0,6,4,2,mix,0,157,157,157,,,,,,,None,816.9450620993885,None,815.9542639572101,816.9533800759818,816.4454921736724,None,2,"[0.24136467925927718, 0.4911172502434056]","[0.32488824803658645, 0.9917182638200757]",816.9450620993885,None,[1 1 2 3 0 0 2 2],space,0,2.4972718431927206,0.0021919677128607873,None,817.4362925608366,None,1,819.9341479622308,None,None,820.4337116982118,None,,,,,,,,,,,,,,,,,,,,,,,,,,,,,,,,,,,,,,,,,,,,,,,10_FF,10,35,F,2022-11-29_17h44.26.418,dynamic target,2022.1.3,120.10531140925652,
0,5,4,1,mix,0,158,158,158,,,,,,,None,821.4661460020397,None,820.4920582181367,None,820.9665844148258,None,1,[0.008047616698604543],[0.5168941260380961],821.4661460020397,None,[2 3 2 0 3 2 3 0],space,0,2.514037684581126,0.0026355118861829396,None,821.4828053671736,None,1,823.9973063430989,None,None,824.4968761725999,None,,,,,,,,,,,,,,,,,,,,,,,,,,,,,,,,,,,,,,,,,,,,,,,10_FF,10,35,F,2022-11-29_17h44.26.418,dynamic target,2022.1.3,120.10531140925652,
1,6,2,2,mix,0,159,159,159,,,,,,,None,825.5210120632473,None,824.5301905091146,None,825.0214241776775,None,1,[0.008766972863668343],[0.5178004570807389],825.5210120632473,None,[2 0 2 0 2 2 1 1],space,0,1.4195544375943427,0.002298764684383059,None,825.5376473750075,None,1,826.9614177506191,None,None,827.4610023328554,None,,,,,,,,,,,,,,,,,,,,,,,,,,,,,,,,,,,,,,,,,,,,,,,10_FF,10,35,F,2022-11-29_17h44.26.418,dynamic target,2022.1.3,120.10531140925652,
1,7,2,2,mix,0,160,160,160,,,,,,,None,828.4851116044374,None,827.494295823115,828.4934327881456,827.9855362266208,None,1,[0.06644631640301668],[0.5667365604167571],828.4851116044374,None,[1 0 2 3 1 0 0 2],space,0,2.3739309645825415,0.0028856669487140607,None,828.5517253323051,None,1,830.9246693302812,None,None,831.4242375562266,None,,,,,,,,,,,,,,,,,,,,,,,,,,,,,,,,,,,,,,,,,,,,,,,10_FF,10,35,F,2022-11-29_17h44.26.418,dynamic target,2022.1.3,120.10531140925652,
0,6,4,1,mix,0,161,161,161,,,,,,,None,832.4483538834647,None,831.4575538170138,832.4566814814061,831.9487884477094,None,4,"[0.6496854139695643, 0.9829009392342414, 0.9992177843560057, 1.2998640824152972]","[0.6919459049277066, 0.9910909518912376, 1.0171612788180937, 1.8072433360939613]",832.4483538834647,None,[0 1 1 3 3 2 3 2],space,0,2.721918146380631,0.002791057020658627,None,833.7555645069733,None,1,836.47821566317,None,None,836.9777845305383,None,,,,,,,,,,,,,,,,,,,,,,,,,,,,,,,,,,,,,,,,,,,,,,,10_FF,10,35,F,2022-11-29_17h44.26.418,dynamic target,2022.1.3,120.10531140925652,
0,7,4,2,mix,0,162,162,162,,,,,,,None,838.001903744178,None,837.011100791322,838.0102297385602,837.502336704867,None,1,[0.31619183173097554],[0.8163512254068337],838.001903744178,None,[0 3 0 3 0 2 3 1],space,0,3.4230008046724834,0.003175910966092488,None,838.3182979449448,None,1,841.7403659832707,None,None,842.239917532212,None,,,,,,,,,,,,,,,,,,,,,,,,,,,,,,,,,,,,,,,,,,,,,,,10_FF,10,35,F,2022-11-29_17h44.26.418,dynamic target,2022.1.3,120.10531140925652,
1,6,2,1,mix,0,163,163,163,,,,,,,None,843.2640402736833,None,842.2899406234501,843.2890124840196,842.7644664994259,None,1,[0.9334051941186772],[1.44116833960652],843.2640402736833,None,[2 2 1 0 1 1 2 0],space,0,1.3605434994060488,0.002932490846433211,None,844.2048904673611,None,0,845.5703820894087,None,None,846.0699554467413,None,,,,,,,,,,,,,,,,,,,,,,,,,,,,,,,,,,,,,,,,,,,,,,,10_FF,10,35,F,2022-11-29_17h44.26.418,dynamic target,2022.1.3,120.10531140925652,
0,7,2,2,mix,0,164,164,164,,,,,,,None,847.0940676047248,None,846.103257275503,None,846.5944979997221,None,1,[0.008633556826680433],[0.5177654995095509],847.0940676047248,None,[2 0 3 3 1 0 2 3],space,0,1.7497235231749073,0.0022673349449178204,None,847.1107503818057,None,0,848.8591976564967,None,None,849.3587851251381,None,,,,,,,,,,,,,,,,,,,,,,,,,,,,,,,,,,,,,,,,,,,,,,,10_FF,10,35,F,2022-11-29_17h44.26.418,dynamic target,2022.1.3,120.10531140925652,
1,8,3,2,mix,0,165,165,165,,,,,,,None,850.3829040180681,None,849.3920978580936,850.3912370681064,849.8833424308505,None,1,[0.8253789368172875],[1.3327222707921464],850.3829040180681,None,[2 1 1 1 0 3 3 0],space,0,2.061383058284264,0.00337539359315997,None,851.215528792527,None,1,853.2804093947962,None,None,853.7799773000319,None,,,,,,,,,,,,,,,,,,,,,,,,,,,,,,,,,,,,,,,,,,,,,,,10_FF,10,35,F,2022-11-29_17h44.26.418,dynamic target,2022.1.3,120.10531140925652,
0,1,4,2,mix,0,166,166,166,,,,,,,None,854.8040910615746,None,853.8132855430231,854.8124209044945,854.304519211586,None,4,"[0.008588015778514091, 0.050377381365251495, 0.07516229611792369, 0.5922773924612557]","[0.025226534653484123, 0.06682379398262128, 0.41648316616920056, 1.099795193560567]",854.8040910615746,None,[1 3 2 2 1 2 3 1],space,0,3.24794549795115,0.0027323667964083143,None,855.4035905590172,None,1,858.6507742299218,None,None,859.1503421351575,None,,,,,,,,,,,,,,,,,,,,,,,,,,,,,,,,,,,,,,,,,,,,,,,10_FF,10,35,F,2022-11-29_17h44.26.418,dynamic target,2022.1.3,120.10531140925652,
0,2,2,2,mix,0,167,167,167,,,,,,,None,860.1744600659513,None,859.1836535852672,860.1827908710075,859.6748904609449,None,7,"[0.009222062650223961, 0.36656472313188715, 0.5588788050008588, 1.5496843235523556, 2.0574474690401985, 2.1240214286663104, 2.240778097704606]","[0.3582538021946675, 0.38325134875049116, 0.8595584570684878, 1.883499579547788, 2.115426998658222, 2.1490115988563048, 2.748573635068169]",860.1744600659513,None,[2 2 0 0 1 2 0 3],space,0,2.692879312693549,0.002902023243223084,None,862.4225327494678,None,1,865.1201982254388,None,None,865.6197856940802,None,,,,,,,,,,,,,,,,,,,,,,,,,,,,,,,,,,,,,,,,,,,,,,,10_FF,10,35,F,2022-11-29_17h44.26.418,dynamic target,2022.1.3,120.10531140925652,
1,3,4,2,mix,0,168,168,168,,,,,,,None,866.6438824579091,None,865.6530772600709,866.6522097351371,866.1443147771715,None,5,"[0.008671080086060101, 0.38327443999151, 0.4331864687919733, 1.116787778064463, 1.3664932044412126]","[0.37492214725352824, 0.4165149166183255, 0.7670293059854885, 1.1585085113656532, 1.8742236373436754]",866.6438824579091,None,[3 0 3 0 1 1 3 0],space,0,1.9780490300763631,0.002899778264691122,None,868.0177029607439,None,1,869.9993290712882,None,None,870.4989142949511,None,,,,,,,,,,,,,,,,,,,,,,,,,,,,,,,,,,,,,,,,,,,,,,,10_FF,10,35,F,2022-11-29_17h44.26.418,dynamic target,2022.1.3,120.10531140925652,
1,4,2,2,mix,0,169,169,169,,,,,,,None,871.5230126623355,None,870.5405905455482,871.5396742724479,871.0234424159062,None,14,"[0.11637662576686125, 0.47445403657184215, 0.5170692345818679, 1.008039598902542, 1.2747398547653574, 1.299734194206394, 1.332535937337525, 1.3494326290710887, 1.3662488221852982, 1.4493561072777084, 1.6492607917825808, 1.682115773044643, 1.7075485252717044, 1.732090340614377]","[0.4584989541581308, 0.5085716594803671, 0.7748251640587114, 1.2661210506739735, 1.2906314362808189, 1.3080749413238664, 1.3408619317197008, 1.3578897945044446, 1.4324433799665712, 1.457725077016221, 1.6657161843249924, 1.6903391397099767, 1.715748159273062, 2.2405205662726075]",871.5230126623355,None,[2 3 1 3 2 2 3 1],space,0,1.5155501605840982,0.002561427500040736,None,873.2631788422696,None,0,874.7868646782954,None,None,875.2864543919189,None,,,,,,,,,,,,,,,,,,,,,,,,,,,,,,,,,,,,,,,,,,,,,,,10_FF,10,35,F,2022-11-29_17h44.26.418,dynamic target,2022.1.3,120.10531140925652,
0,5,2,2,mix,0,170,170,170,,,,,,,None,876.3105537214396,None,875.3197417886586,876.3188781122662,875.8110065662477,None,1,[0.3079165097842633],[0.8082635197606578],876.3105537214396,None,[2 3 3 3 0 2 2 0],space,0,3.3926374319889874,0.0029289630183484405,None,876.6186219278206,None,1,880.0156917781715,None,None,880.515262890522,None,,,,,,,,,,,,,,,,,,,,,,,,,,,,,,,,,,,,,,,,,,,,,,,10_FF,10,35,F,2022-11-29_17h44.26.418,dynamic target,2022.1.3,120.10531140925652,
1,6,1,2,mix,0,171,171,171,,,,,,,None,881.5393795384698,None,880.5485842826929,881.5477042500061,881.0398102541767,None,1,[0.2579194924037438],[0.7581754202765296],881.5393795384698,None,[1 2 2 2 2 0 0 3],space,0,2.0692032904407824,0.002766362227703212,None,881.7975132662359,None,1,883.8707121658081,None,None,884.3702739775239,None,,,,,,,,,,,,,,,,,,,,,,,,,,,,,,,,,,,,,,,,,,,,,,,10_FF,10,35,F,2022-11-29_17h44.26.418,dynamic target,2022.1.3,120.10531140925652,
0,7,2,2,mix,0,172,172,172,,,,,,,None,885.3943941532998,None,884.4035796548233,885.4027230340835,884.894825510426,None,1,[0.1497521219898772],[0.6497736096680455],885.3943941532998,None,[3 0 0 2 0 3 1 1],space,0,2.6265067599633767,0.0030816217476967722,None,885.5442732770898,None,1,888.1753288737309,None,None,888.6748945339808,None,,,,,,,,,,,,,,,,,,,,,,,,,,,,,,,,,,,,,,,,,,,,,,,10_FF,10,35,F,2022-11-29_17h44.26.418,dynamic target,2022.1.3,120.10531140925652,
0,8,2,2,mix,0,173,173,173,,,,,,,None,889.6990140683338,None,888.7082082290763,889.7073391005833,889.1994441426177,None,7,"[0.3245235989234061, 0.34953653963748366, 0.6751640279580897, 0.8330330403514381, 0.8665009015203395, 1.2407485922376509, 1.6157159598296857]","[0.3412041310220957, 0.599776592283888, 0.6832199831551407, 0.8413080415884906, 1.1079650013816718, 1.366108029786119, 2.1233546692092204]",889.6990140683338,None,[3 2 3 0 1 0 2 3],space,0,3.551885504351958,0.0031919465509417932,None,891.3226144026448,None,1,894.8778868054724,None,None,895.3774540692851,None,,,,,,,,,,,,,,,,,,,,,,,,,,,,,,,,,,,,,,,,,,,,,,,10_FF,10,35,F,2022-11-29_17h44.26.418,dynamic target,2022.1.3,120.10531140925652,
1,1,3,2,mix,0,174,174,174,,,,,,,None,896.4015675101145,None,895.4107802721301,896.4099044086943,895.9020059229006,None,5,"[0.1501254303184396, 0.924856625872053, 0.9503246563763241, 1.5742489094227494, 1.5995870517181174]","[0.42483032751988503, 0.9333477867403417, 1.1583122358570108, 1.5832237034119316, 2.10745763560044]",896.4015675101145,None,[3 1 0 0 2 2 3 3],space,0,2.4017183815267344,0.0027875291925738566,None,898.0085344569343,None,0,900.4147756974999,None,None,900.9143641282775,None,,,,,,,,,,,,,,,,,,,,,,,,,,,,,,,,,,,,,,,,,,,,,,,10_FF,10,35,F,2022-11-29_17h44.26.418,dynamic target,2022.1.3,120.10531140925652,
1,2,3,2,mix,0,175,175,175,,,,,,,None,901.9384628163716,None,900.9476531285727,901.9467916971589,901.4388996256021,None,1,[0.5000978170428425],[1.0001298882052652],901.9384628163716,None,[1 1 2 1 1 0 3 2],space,0,4.227249335650413,0.002533846301957965,None,902.4380349870698,None,1,906.6760504748781,None,None,907.175617417974,None,,,,,,,,,,,,,,,,,,,,,,,,,,,,,,,,,,,,,,,,,,,,,,,10_FF,10,35,F,2022-11-29_17h44.26.418,dynamic target,2022.1.3,120.10531140925652,
0,3,3,2,mix,0,176,176,176,,,,,,,None,908.1997343866351,None,907.2089291887969,908.2080825101184,907.7001634987828,None,4,"[0.00915246822842164, 0.32494212758683716, 0.8088260479380551, 0.8250332096868078]","[0.08336642007998307, 0.4331457384141686, 0.8168637225753628, 1.3330423409897776]",908.1997343866351,None,[2 0 1 2 0 0 0 2],space,0,5.072942146514833,0.002950450700154761,None,909.032350822592,None,1,914.1029869156082,None,None,914.6025480858974,None,,,,,,,,,,,,,,,,,,,,,,,,,,,,,,,,,,,,,,,,,,,,,,,10_FF,10,35,F,2022-11-29_17h44.26.418,dynamic target,2022.1.3,120.10531140925652,
1,4,4,2,mix,0,177,177,177,,,,,,,None,915.626678203731,None,914.6358531217738,915.63499169036,915.127107636592,None,1,[0.06651783509369125],[0.5668465645030665],915.626678203731,None,[1 3 0 0 0 2 3 1],space,0,3.2275110363298154,0.002643850391905289,None,915.6932752545945,None,1,918.9238268208537,None,None,919.4233928018206,None,,,,,,,,,,,,,,,,,,,,,,,,,,,,,,,,,,,,,,,,,,,,,,,10_FF,10,35,F,2022-11-29_17h44.26.418,dynamic target,2022.1.3,120.10531140925652,
1,4,3,0,mix,0,178,178,178,,,,,,,None,920.4475103156896,None,919.4566981584103,None,919.9479449761493,None,1,[0.008828228779748315],[0.5088490750349592],920.4475103156896,None,[2 0 1 2 1 1 1 1],space,0,3.2331113026521052,0.002775662866042694,None,920.4558261435122,None,1,923.6863854068506,None,None,924.1859671026854,None,,,,,,,,,,,,,,,,,,,,,,,,,,,,,,,,,,,,,,,,,,,,,,,10_FF,10,35,F,2022-11-29_17h44.26.418,dynamic target,2022.1.3,120.10531140925652,
1,5,3,2,mix,0,179,179,179,,,,,,,None,925.210072525726,None,924.2192740628307,925.2184171213812,924.7104997136048,None,2,"[0.1326835288273287, 0.5165541717215092]","[0.28285033094289247, 1.0239363118016627]",925.210072525726,None,[3 0 3 1 2 1 3 1],space,0,4.161723782312038,0.0032974606729112566,None,925.7346213967248,None,1,929.8976990865485,None,space,930.4055978930519,None,2.807246359447163,,,,,,,,,,,,,,,,,,,,,,,,,,,,,,,,,,,,,,,,,,,,,,10_FF,10,35,F,2022-11-29_17h44.26.418,dynamic target,2022.1.3,120.10531140925652,
1,6,4,2,mix,0,180,180,180,,,,,,,None,934.2606041693798,None,933.2781814111695,934.2772632138003,933.7610326401045,None,1,[0.0498446793644689],[0.550606369462912],934.2606041693798,None,[0 0 0 1 0 0 1 1],space,0,1.9208520368119935,0.0023253837498486973,None,934.3105627013647,None,0,936.2339062098108,None,None,936.7334792464302,None,,,,,,,,,,,,,,,,,,,,,,,,,,,,,,,,,,,,,,,,,,,,,,,10_FF,10,35,F,2022-11-29_17h44.26.418,dynamic target,2022.1.3,120.10531140925652,
0,7,3,2,mix,0,181,181,181,,,,,,,None,937.7659254165883,None,936.791811334333,937.7908979476379,937.2663570944278,None,3,"[0.008758634361583972, 0.8500121549732285, 1.7162394894803583]","[0.03358395877512521, 0.9265057250231621, 2.223973450210906]",937.7659254165883,None,[1 0 1 0 0 0 1 2],space,0,2.3740967724916118,0.0029818804359820206,None,939.4894315899655,None,1,941.8707301256618,None,None,942.3702842402948,None,,,,,,,,,,,,,,,,,,,,,,,,,,,,,,,,,,,,,,,,,,,,,,,10_FF,10,35,F,2022-11-29_17h44.26.418,dynamic target,2022.1.3,120.10531140925652,
1,7,2,0,mix,0,182,182,182,,,,,,,None,943.3944095474544,None,942.4035902383075,None,942.8948312832363,None,1,[0.008626501170510892],[0.5178132855435251],943.3944095474544,None,[2 2 1 2 3 2 3 1],space,0,1.7636189955592272,0.0023536063708888832,None,943.411052877007,None,1,945.1762066614356,None,None,945.6757659074559,None,,,,,,,,,,,,,,,,,,,,,,,,,,,,,,,,,,,,,,,,,,,,,,,10_FF,10,35,F,2022-11-29_17h44.26.418,dynamic target,2022.1.3,120.10531140925652,
1,8,1,2,mix,0,183,183,183,,,,,,,None,946.6998899317696,None,945.7174511379817,946.7165345441681,946.2003129503973,None,4,"[0.00827179411862744, 0.5248327007830085, 1.4992168222233886, 2.0904903873124567]","[0.38326161152508575, 0.5501990657030547, 1.8248055044387002, 2.5980348074735957]",946.6998899317696,None,[1 0 2 1 2 0 0 0],space,0,1.8491242414384033,0.00305885122725158,None,948.7980761151302,None,0,950.654806537128,None,None,951.1543789323244,None,,,,,,,,,,,,,,,,,,,,,,,,,,,,,,,,,,,,,,,,,,,,,,,10_FF,10,35,F,2022-11-29_17h44.26.418,dynamic target,2022.1.3,120.10531140925652,
1,8,4,0,mix,0,184,184,184,,,,,,,None,952.1868202918085,None,951.1960208667806,952.1951453240545,951.6872500453792,None,3,"[0.8328024486982031, 2.240432691291062, 3.4971623435812944]","[1.1828729731860221, 2.4816812729441153, 3.9972531049716054]",952.1868202918085,None,[2 2 0 0 3 0 3 2],space,0,2.4510829555947566,0.0027397431658755522,None,955.6838165067711,None,1,958.1400287870747,None,None,958.6395938059017,None,,,,,,,,,,,,,,,,,,,,,,,,,,,,,,,,,,,,,,,,,,,,,,,10_FF,10,35,F,2022-11-29_17h44.26.418,dynamic target,2022.1.3,120.10531140925652,
0,1,3,2,mix,0,185,185,185,,,,,,,None,959.6720358068087,None,958.68956173474,959.6886916441144,959.1724642775371,None,3,"[1.2668503489003342, 2.090720658252394, 2.6740418579975085]","[1.7491156377036532, 2.3408067693235353, 3.181353120813583]",959.6720358068087,None,[2 0 0 0 2 3 2 0],space,0,2.213553987316118,0.0028404466102074366,None,962.3530720645431,None,1,964.5678279420645,None,None,965.0674000165476,None,,,,,,,,,,,,,,,,,,,,,,,,,,,,,,,,,,,,,,,,,,,,,,,10_FF,10,35,F,2022-11-29_17h44.26.418,dynamic target,2022.1.3,120.10531140925652,
0,8,4,1,mix,0,186,186,186,,,,,,,None,966.0914999874913,None,965.1090166147842,None,965.5919342310262,None,1,[0.008627463306766003],[0.5177279762538092],966.0914999874913,None,[1 0 0 3 0 3 1 2],space,0,1.657657800384186,0.002197419813455781,None,966.1081683325501,None,1,967.7650588537872,None,None,968.2646376632168,None,,,,,,,,,,,,,,,,,,,,,,,,,,,,,,,,,,,,,,,,,,,,,,,10_FF,10,35,F,2022-11-29_17h44.26.418,dynamic target,2022.1.3,120.10531140925652,
0,5,4,0,mix,0,187,187,187,,,,,,,None,969.2970511207895,None,968.3146405496227,969.3137159380203,968.7974712530122,None,2,"[0.9582773424299376, 1.749216341155261]","[1.4164796383374778, 2.257012199228484]",969.2970511207895,None,[0 1 2 0 2 0 2 0],space,0,2.6004713906040706,0.0033731486146280076,None,971.0538869286283,None,1,973.6516452826836,None,None,974.1512202435719,None,,,,,,,,,,,,,,,,,,,,,,,,,,,,,,,,,,,,,,,,,,,,,,,10_FF,10,35,F,2022-11-29_17h44.26.418,dynamic target,2022.1.3,120.10531140925652,
1,6,4,2,mix,0,188,188,188,,,,,,,None,975.1836641687514,None,974.1928564052178,None,974.684094563745,None,1,[0.008965172644820996],[0.5173607614487992],975.1836641687514,None,[1 1 1 3 0 1 3 3],space,0,2.5651757939085655,0.002579066644102568,None,975.2003177610713,None,1,977.7647753447163,None,None,978.2643413256795,None,,,,,,,,,,,,,,,,,,,,,,,,,,,,,,,,,,,,,,,,,,,,,,,10_FF,10,35,F,2022-11-29_17h44.26.418,dynamic target,2022.1.3,120.10531140925652,
1,5,3,1,mix,0,189,189,189,,,,,,,None,979.2967858922784,None,978.3142999538795,979.3134500680862,978.7972156458527,None,2,"[0.00868326712588896, 0.8419908366267919]","[0.4416644804805401, 1.3499127343675354]",979.2967858922784,None,[0 2 2 0 1 0 0 2],space,0,2.739439584347565,0.002667262338945875,None,980.1460552791359,None,1,982.8853606690791,None,None,983.3849282536015,None,,,,,,,,,,,,,,,,,,,,,,,,,,,,,,,,,,,,,,,,,,,,,,,10_FF,10,35,F,2022-11-29_17h44.26.418,dynamic target,2022.1.3,120.10531140925652,
1,6,4,2,mix,0,190,190,190,,,,,,,None,984.4090436187034,None,983.4349430063376,None,983.9094756172562,None,1,[0.009422507413546555],[0.517726051981299],984.4090436187034,None,[2 1 3 0 3 3 0 1],space,0,1.579120976595732,0.002275994160299888,None,984.4257004181418,None,1,986.0076675734235,None,None,986.5072390064873,None,,,,,,,,,,,,,,,,,,,,,,,,,,,,,,,,,,,,,,,,,,,,,,,10_FF,10,35,F,2022-11-29_17h44.26.418,dynamic target,2022.1.3,120.10531140925652,
1,7,4,2,mix,0,191,191,191,,,,,,,None,987.5396797245448,None,986.5655842435663,987.564657707695,987.0401239101411,None,6,"[0.008500782216287917, 0.11662164944573306, 0.15825995986233465, 0.20820245626964606, 0.7085571633215295, 0.7332647865696345]","[0.08332152045841212, 0.1249963919945003, 0.16656318372042733, 0.21658970657153986, 0.7167311403936765, 1.2416164378846588]",987.5396797245448,None,[3 2 3 1 1 1 0 1],space,0,1.804361879130738,0.002712803387112217,None,988.2807102222978,None,1,990.0874814708841,None,None,990.5870545075035,None,,,,,,,,,,,,,,,,,,,,,,,,,,,,,,,,,,,,,,,,,,,,,,,10_FF,10,35,F,2022-11-29_17h44.26.418,dynamic target,2022.1.3,120.10531140925652,
1,8,3,2,mix,0,192,192,192,,,,,,,None,991.6194952255646,None,990.6454013481416,991.6444741708474,991.1199275448307,None,2,"[0.008599240682087839, 0.767586061359907]","[0.4497396783772274, 1.2748097699040954]",991.6194952255646,None,[1 3 3 2 1 0 2 2],space,0,2.634553735239024,0.0027554580301512033,None,992.3938319458284,None,1,995.0248949188353,None,None,995.5244631447807,None,,,,,,,,,,,,,,,,,,,,,,,,,,,,,,,,,,,,,,,,,,,,,,,10_FF,10,35,F,2022-11-29_17h44.26.418,dynamic target,2022.1.3,120.10531140925652,
0,1,2,2,mix,0,193,193,193,,,,,,,None,996.5569054664011,None,995.5827955533969,None,996.0573393892228,None,1,[0.008614955553639447],[0.5176346491716686],996.5569054664011,None,[0 3 1 3 0 2 3 3],space,0,4.9346368636906845,0.0023885639384388924,None,996.5735834328079,None,1,1001.5109587160769,None,None,1002.0105465054279,None,,,,,,,,,,,,,,,,,,,,,,,,,,,,,,,,,,,,,,,,,,,,,,,10_FF,10,35,F,2022-11-29_17h44.26.418,dynamic target,2022.1.3,120.10531140925652,
1,2,1,2,mix,0,194,194,194,,,,,,,None,1003.0429888270482,None,1002.0688811590262,None,1002.5434144113678,None,1,[0.008589619334088638],[0.5171080406871624],1003.0429888270482,None,[2 0 3 1 1 2 2 0],space,0,3.92043158387969,0.0028420501730579417,None,1003.0596565306805,None,1,1006.9812534436387,None,None,1007.4808717005966,None,,,,,,,,,,,,,,,,,,,,,,,,,,,,,,,,,,,,,,,,,,,,,,,10_FF,10,35,F,2022-11-29_17h44.26.418,dynamic target,2022.1.3,120.10531140925652,
1,3,1,2,mix,0,195,195,195,,,,,,,None,1008.5132697640147,None,1007.5224831674495,None,1008.0137155531665,None,1,[0.008667231548315613],[0.5175971259122889],1008.5132697640147,None,[1 1 1 1 3 0 0 3],space,0,2.8175671801109274,0.0021778564041596837,None,1008.5299239977576,None,1,1011.3525088949355,None,None,1011.8520581988945,None,,,,,,,,,,,,,,,,,,,,,,,,,,,,,,,,,,,,,,,,,,,,,,,10_FF,10,35,F,2022-11-29_17h44.26.418,dynamic target,2022.1.3,120.10531140925652,
1,4,1,2,mix,0,196,196,196,,,,,,,None,1012.8844995583786,None,1011.9020893079214,None,1012.3849052585792,None,1,[0.008715017578651896],[0.5170519161547418],1012.8844995583786,None,[3 2 1 0 0 3 3 1],space,0,2.31872943901908,0.002985728977364488,None,1012.901151547143,None,1,1015.2241604250848,None,None,1015.7237193503919,None,,,,,,,,,,,,,,,,,,,,,,,,,,,,,,,,,,,,,,,,,,,,,,,10_FF,10,35,F,2022-11-29_17h44.26.418,dynamic target,2022.1.3,120.10531140925652,
1,5,3,2,mix,0,197,197,197,,,,,,,None,1016.7561770661669,None,1015.7820536832769,None,1016.2565978398125,None,1,[0.0086422160420625],[0.5175182308521471],1016.7561770661669,None,[3 1 2 3 1 0 1 0],space,0,4.093706299678161,0.002614986340631731,None,1016.7728162264684,None,1,1020.8692830748296,None,None,1021.368869260625,None,,,,,,,,,,,,,,,,,,,,,,,,,,,,,,,,,,,,,,,,,,,,,,,10_FF,10,35,F,2022-11-29_17h44.26.418,dynamic target,2022.1.3,120.10531140925652,
1,6,2,2,mix,0,198,198,198,,,,,,,None,1022.3929685901458,None,1021.4021621094616,None,1021.8934009094082,None,1,[0.00861944551797933],[0.5177414461431908],1022.3929685901458,None,[0 3 0 1 2 2 0 1],space,0,2.5528113988002588,0.0022913883185537998,None,1022.4096372559143,None,1,1024.9657601859617,None,None,1025.465320073405,None,,,,,,,,,,,,,,,,,,,,,,,,,,,,,,,,,,,,,,,,,,,,,,,10_FF,10,35,F,2022-11-29_17h44.26.418,dynamic target,2022.1.3,120.10531140925652,
0,5,4,1,mix,0,199,199,199,,,,,,,None,1026.4977482837094,None,1025.5236579341145,1026.5227429438637,1025.998201769944,None,2,"[0.8494133863714524, 1.2829564864878193]","[1.1071901621035067, 1.7904819846626197]",1026.4977482837094,None,[3 3 2 1 1 1 1 1],space,0,2.7742736770196643,0.0025174900074489415,None,1027.7883338582287,None,1,1030.5609287936823,None,None,1031.0604976610507,None,,,,,,,,,,,,,,,,,,,,,,,,,,,,,,,,,,,,,,,,,,,,,,,10_FF,10,35,F,2022-11-29_17h44.26.418,dynamic target,2022.1.3,120.10531140925652,
