tar_letter,tar_pos,tar_ori,tar_pos_type,block,trials.thisRepN,trials.thisTrialN,trials.thisN,trials.thisIndex,instructions_key.keys,instructions_key.rt,instructions_key.started,instructions_key.stopped,instruction_text.started,instruction_text.stopped,fix_key.keys,fix_key.started,fix_key.stopped,fixcross.started,fixcross.stopped,roi.started,roi.stopped,roi.numLooks,roi.timesOn,roi.timesOff,RedFixCross.started,RedFixCross.stopped,distori,search_resp.keys,search_resp.corr,search_resp.rt,search_resp.started,search_resp.stopped,fixcross_shape.started,fixcross_shape.stopped,correct,feedback_text.started,feedback_text.stopped,break_key.keys,break_key.started,break_key.stopped,break_key.rt,text_q1.started,text_q1.stopped,key_resp1.keys,key_resp1.rt,key_resp1.started,key_resp1.stopped,text_q2.started,text_q2.stopped,key_resp_2.keys,key_resp_2.rt,key_resp_2.started,key_resp_2.stopped,image.started,image.stopped,text_q1_2.started,text_q1_2.stopped,slider.response,slider.rt,slider.started,slider.stopped,mouse.x,mouse.y,mouse.leftButton,mouse.midButton,mouse.rightButton,mouse.time,mouse.started,mouse.stopped,key_resp_3.keys,key_resp_3.rt,key_resp_3.started,key_resp_3.stopped,text_q4.started,text_q4.stopped,key_resp1_3.keys,key_resp1_3.rt,key_resp1_3.started,key_resp1_3.stopped,finish_text.started,finish_text.stopped,key_resp.keys,key_resp.rt,key_resp.started,key_resp.stopped,participant,group,age,gender,date,expName,psychopyVersion,frameRate,
,,,,,,,,,space,2.2638528425029563,34.3824015193984,None,,,,,,,,,,,,,,,,,,,,,,,,,,,,,,,,,,,,,,,,,,,,,,,,,,,,,,,,,,,,,,,,,,,,,,,,,,11_JH,11,24,F,2022-11-30_11h37.31.576,dynamic target,2022.1.3,120.08303165676838,
1,8,3,0,L,0,0,0,0,,,,,34.3824015193984,None,None,223.32738073093788,None,222.35428514250452,223.36070480642547,222.82780503105118,None,2,"[0.008996894238634923, 0.40820332794965]","[0.08342548417681428, 0.9168006167906242]",223.32738073093788,None,[0 2 0 1 0 1 2 3],space,0,3.8422867870251594,0.007034081273332049,None,223.75202753236294,None,1,227.5986781592237,None,None,228.0982937555083,None,,,,,,,,,,,,,,,,,,,,,,,,,,,,,,,,,,,,,,,,,,,,,,11_JH,11,24,F,2022-11-30_11h37.31.576,dynamic target,2022.1.3,120.08303165676838,
1,7,1,2,L,0,1,1,1,,,,,,,None,229.13904054936438,None,228.148218324377,229.1473594614115,228.63114016463987,None,3,"[0.00866527948642215, 0.10891203421579121, 0.4499155889720896]","[0.10015759718476147, 0.1171443544030808, 0.949985183170611]",229.13904054936438,None,[2 3 1 2 0 1 0 1],space,0,2.617959990628833,0.0028506040264346666,None,229.580307535801,None,1,232.2030393101386,None,None,232.7026305324181,None,,,,,,,,,,,,,,,,,,,,,,,,,,,,,,,,,,,,,,,,,,,,,,11_JH,11,24,F,2022-11-30_11h37.31.576,dynamic target,2022.1.3,120.08303165676838,
1,6,3,2,L,0,2,2,2,,,,,,,None,233.7350478307776,None,232.76094104184767,233.76004176934748,233.2354929770795,None,1,[0.050253425509708904],[0.5503146812327486],233.7350478307776,None,[0 2 2 3 0 0 2 3],space,0,11.372039429359575,0.002946496493223094,None,233.78500107117338,None,1,245.1585243592524,None,None,245.65810884660928,None,,,,,,,,,,,,,,,,,,,,,,,,,,,,,,,,,,,,,,,,,,,,,,11_JH,11,24,F,2022-11-30_11h37.31.576,dynamic target,2022.1.3,120.08303165676838,
1,5,2,2,L,0,3,3,3,,,,,,,None,246.6905325591806,None,245.71640332050924,246.71551591430102,246.19094980366094,None,1,[0.0664691944648439],[0.5753644234457624],246.6905325591806,None,[1 0 3 2 0 3 0 0],space,0,2.278896093533376,0.0024384909154377965,None,246.7654781345932,None,1,249.04681572867366,None,None,249.54644736048763,None,,,,,,,,,,,,,,,,,,,,,,,,,,,,,,,,,,,,,,,,,,,,,,11_JH,11,24,F,2022-11-30_11h37.31.576,dynamic target,2022.1.3,120.08303165676838,
1,6,1,1,L,0,4,4,4,,,,,,,None,250.57048930173596,None,249.57970331704541,None,250.07093573088014,None,1,[0.008975085918336845],[0.5176236884540231],250.57048930173596,None,[3 2 0 1 3 1 1 1],space,0,2.93652567023355,0.0019032249374504318,None,250.58718902297437,None,1,253.52629153362523,None,None,254.02586415469037,None,,,,,,,,,,,,,,,,,,,,,,,,,,,,,,,,,,,,,,,,,,,,,,11_JH,11,24,F,2022-11-30_11h37.31.576,dynamic target,2022.1.3,120.08303165676838,
1,5,1,2,L,0,5,5,5,,,,,,,None,255.0582878672617,None,254.084173701988,255.083258714669,254.55871345021728,None,1,[0.20795868991012867],[0.7085032564953053],255.0582878672617,None,[1 2 2 0 0 1 3 1],space,0,2.017832860949966,0.0023605582416621473,None,255.26644635987054,None,1,257.28972096895654,None,None,257.78926280180474,None,,,,,,,,,,,,,,,,,,,,,,,,,,,,,,,,,,,,,,,,,,,,,,11_JH,11,24,F,2022-11-30_11h37.31.576,dynamic target,2022.1.3,120.08303165676838,
1,4,1,2,L,0,6,6,6,,,,,,,None,258.8133872939594,None,257.8225742412949,None,258.3138505924808,None,1,[0.008654696036728637],[0.5089612953627238],258.8133872939594,None,[2 1 1 1 2 1 1 0],space,0,2.028957669966985,0.0017823170442170522,None,258.8217166611719,None,1,260.8532797147984,None,None,261.3528625986024,None,,,,,,,,,,,,,,,,,,,,,,,,,,,,,,,,,,,,,,,,,,,,,,11_JH,11,24,F,2022-11-30_11h37.31.576,dynamic target,2022.1.3,120.08303165676838,
1,2,4,0,L,0,7,7,7,,,,,,,None,262.3852875940163,None,261.4028474610625,None,261.8857523036643,None,1,[0.008606589448163504],[0.5172420428496025],262.3852875940163,None,[1 0 0 0 0 0 0 1],space,0,2.7529663214556876,0.0023535026084573474,None,262.4019369636917,None,1,265.1578938422283,None,None,265.65745812481794,None,,,,,,,,,,,,,,,,,,,,,,,,,,,,,,,,,,,,,,,,,,,,,,11_JH,11,24,F,2022-11-30_11h37.31.576,dynamic target,2022.1.3,120.08303165676838,
1,1,2,2,L,0,8,8,8,,,,,,,None,266.68991679484407,None,265.707427272459,None,266.1903542440916,None,1,[0.01662018501156126],[0.5171294734318508],266.68991679484407,None,[3 0 3 1 3 1 3 3],space,0,1.984485373589223,0.001971536293922327,None,266.70656295741355,None,1,268.69651573598594,None,None,269.1960886777614,None,,,,,,,,,,,,,,,,,,,,,,,,,,,,,,,,,,,,,,,,,,,,,,11_JH,11,24,F,2022-11-30_11h37.31.576,dynamic target,2022.1.3,120.08303165676838,
1,8,4,2,L,0,9,9,9,,,,,,,None,270.2285043725683,None,269.2460424312942,None,269.7289411803945,None,1,[0.008579649758303276],[0.5171362083540316],270.2285043725683,None,[1 1 1 0 0 2 1 1],space,0,4.334321618761123,0.0026876830456785683,None,270.2451996038583,None,1,274.5830890587656,None,None,275.0826687354637,None,,,,,,,,,,,,,,,,,,,,,,,,,,,,,,,,,,,,,,,,,,,,,,11_JH,11,24,F,2022-11-30_11h37.31.576,dynamic target,2022.1.3,120.08303165676838,
1,7,3,2,L,0,10,10,10,,,,,,,None,276.1151094456966,None,275.1410202958491,None,275.6155382357581,None,1,[0.008654696036956011],[0.5171432639872364],276.1151094456966,None,[1 1 1 0 0 3 1 0],space,0,2.8798368659838616,0.0028704880830900947,None,276.13174887334367,None,1,279.01259622921316,None,None,279.5121592289603,None,,,,,,,,,,,,,,,,,,,,,,,,,,,,,,,,,,,,,,,,,,,,,,11_JH,11,24,F,2022-11-30_11h37.31.576,dynamic target,2022.1.3,120.08303165676838,
1,8,2,1,L,0,11,11,11,,,,,,,None,280.54460923980037,None,279.562118434573,280.5612618165817,280.0450341813348,None,1,[0.21675000865911898],[0.7253537117119322],280.54460923980037,None,[2 1 1 3 0 3 2 1],space,0,3.6490952163258044,0.0023958364067766524,None,280.76940876360936,None,1,284.416265671523,None,None,284.9158302748232,None,,,,,,,,,,,,,,,,,,,,,,,,,,,,,,,,,,,,,,,,,,,,,,11_JH,11,24,F,2022-11-30_11h37.31.576,dynamic target,2022.1.3,120.08303165676838,
1,7,3,2,L,0,12,12,12,,,,,,,None,285.9482754750045,None,284.965784028356,285.9649283724964,285.4486975301436,None,1,[0.32459824584134367],[0.8249702701280057],285.9482754750045,None,[1 3 0 1 1 1 1 2],space,0,1.8413275416442048,0.00242117254333607,None,286.27297891392004,None,1,288.11306587780405,None,None,288.61263048110425,None,,,,,,,,,,,,,,,,,,,,,,,,,,,,,,,,,,,,,,,,,,,,,,11_JH,11,24,F,2022-11-30_11h37.31.576,dynamic target,2022.1.3,120.08303165676838,
1,6,3,2,L,0,13,13,13,,,,,,,None,289.6450593250454,None,288.67096696809176,289.6700481322457,289.14550703703185,None,1,[0.11636663121748825],[0.6170035624534194],289.6450593250454,None,[0 1 2 3 0 2 2 1],space,0,2.5601512649914184,0.0025597195192403888,None,289.7616459637288,None,1,292.3260876258307,None,None,292.82564389065567,None,,,,,,,,,,,,,,,,,,,,,,,,,,,,,,,,,,,,,,,,,,,,,,11_JH,11,24,F,2022-11-30_11h37.31.576,dynamic target,2022.1.3,120.08303165676838,
1,5,2,2,L,0,14,14,14,,,,,,,None,293.84976665097315,None,292.85896655501665,293.85809165652154,293.35020025169365,None,2,"[0.009212091045810666, 0.4832483236457392]","[0.19171052918522946, 0.9832627556222633]",293.84976665097315,None,[0 0 3 0 1 2 3 1],space,0,4.117296761124408,0.0028862029021183844,None,294.3327016403705,None,1,298.4541201048339,None,None,298.95372575908993,None,,,,,,,,,,,,,,,,,,,,,,,,,,,,,,,,,,,,,,,,,,,,,,11_JH,11,24,F,2022-11-30_11h37.31.576,dynamic target,2022.1.3,120.08303165676838,
1,4,1,2,L,0,15,15,15,,,,,,,None,299.9861446610025,None,299.0036593078553,300.0027802401223,299.4865679989839,None,4,"[0.008733911553235885, 0.4082078178980737, 0.9666457777168489, 1.4334156704326233]","[0.051059050517096694, 0.6753430641203977, 1.2086786851891702, 1.940928957472579]",299.9861446610025,None,[0 0 0 1 3 0 2 2],space,0,1.7911363339892432,0.002639897167455274,None,301.4265758756362,None,1,303.2166759245124,None,None,303.7162578461847,None,,,,,,,,,,,,,,,,,,,,,,,,,,,,,,,,,,,,,,,,,,,,,,11_JH,11,24,F,2022-11-30_11h37.31.576,dynamic target,2022.1.3,120.08303165676838,
1,3,1,2,L,0,16,16,16,,,,,,,None,304.7486947078903,None,303.7662106375856,304.76535177462006,304.24912670505796,None,2,"[0.008630963453015283, 0.5588741262238273]","[0.30865315662595094, 1.066431350614721]",304.7486947078903,None,[3 3 3 1 0 3 2 1],space,0,2.22244301156843,0.0029833782111836626,None,305.3148775077964,None,1,307.5379439115659,None,None,308.03752390897455,None,,,,,,,,,,,,,,,,,,,,,,,,,,,,,,,,,,,,,,,,,,,,,,11_JH,11,24,F,2022-11-30_11h37.31.576,dynamic target,2022.1.3,120.08303165676838,
1,3,4,0,L,0,17,17,17,,,,,,,None,309.0616441036075,None,308.0708013531421,None,308.5620565374288,None,1,[0.00939329253037613],[0.5176182363738917],309.0616441036075,None,[1 0 2 2 1 0 0 2],space,0,2.4582563785295406,0.002355426872327371,None,309.07828705907104,None,0,311.54281454332727,None,None,312.0423894093666,None,,,,,,,,,,,,,,,,,,,,,,,,,,,,,,,,,,,,,,,,,,,,,,11_JH,11,24,F,2022-11-30_11h37.31.576,dynamic target,2022.1.3,120.08303165676838,
1,2,2,2,L,0,18,18,18,,,,,,,None,313.0748320438629,None,312.10071948214227,313.09981026761375,312.5752640410303,None,1,[0.249565437147794],[0.7498636979983075],313.0748320438629,None,[2 3 1 3 1 0 1 1],space,0,4.260102452839419,0.002640217877797113,None,313.32462582695234,None,1,317.595924858791,None,None,318.09546989874514,None,,,,,,,,,,,,,,,,,,,,,,,,,,,,,,,,,,,,,,,,,,,,,,11_JH,11,24,F,2022-11-30_11h37.31.576,dynamic target,2022.1.3,120.08303165676838,
1,1,3,2,L,0,19,19,19,,,,,,,None,319.1279359451148,None,318.14544995054644,319.14457376920905,318.62835896238585,None,2,"[0.008707933995310668, 0.40822802266529834]","[0.08342676701909113, 0.9083886986718426]",319.1279359451148,None,[0 0 2 0 3 1 1 3],space,0,2.656515176583298,0.0029118597492470144,None,319.5359054750429,None,1,322.1919337437573,None,None,322.6915490193311,None,,,,,,,,,,,,,,,,,,,,,,,,,,,,,,,,,,,,,,,,,,,,,,11_JH,11,24,F,2022-11-30_11h37.31.576,dynamic target,2022.1.3,120.08303165676838,
1,8,2,2,L,0,20,20,20,,,,,,,None,323.71564259498496,None,322.72483319842104,None,323.216063046571,None,1,[0.007690319286666636],[0.5162465571718258],323.71564259498496,None,[3 3 3 2 2 3 0 2],space,0,2.940203579303443,0.00265561198625619,None,323.7322967753191,None,1,326.6713999273911,None,None,327.17096549282303,None,,,,,,,,,,,,,,,,,,,,,,,,,,,,,,,,,,,,,,,,,,,,,,11_JH,11,24,F,2022-11-30_11h37.31.576,dynamic target,2022.1.3,120.08303165676838,
1,7,2,2,L,0,21,21,21,,,,,,,None,328.20343121848214,None,327.22925964601245,None,327.70385199077896,None,1,[0.008572914836122436],[0.5169216529682217],328.20343121848214,None,[0 1 2 3 2 3 0 2],space,0,3.859793416113007,0.0030802328103618493,None,328.22008475739517,None,1,332.0834062415413,None,None,332.58297725905334,None,,,,,,,,,,,,,,,,,,,,,,,,,,,,,,,,,,,,,,,,,,,,,,11_JH,11,24,F,2022-11-30_11h37.31.576,dynamic target,2022.1.3,120.08303165676838,
1,6,1,2,L,0,22,22,22,,,,,,,None,333.61540738583653,None,332.6329528209062,None,333.11584740076887,None,1,[0.008741608607351736],[0.517014979750229],333.61540738583653,None,[2 1 3 2 0 1 1 1],space,0,1.5517524960071114,0.002813722308474098,None,333.6320907508348,None,1,335.18903131289926,None,None,335.6886186866517,None,,,,,,,,,,,,,,,,,,,,,,,,,,,,,,,,,,,,,,,,,,,,,,11_JH,11,24,F,2022-11-30_11h37.31.576,dynamic target,2022.1.3,120.08303165676838,
1,5,4,2,L,0,23,23,23,,,,,,,None,336.7210533033833,None,335.7469596635874,None,336.2214962047108,None,1,[0.00859793026211264],[0.5170371087810963],336.7210533033833,None,[3 3 0 3 1 0 2 2],space,0,1.64594198978466,0.0029410444130917313,None,336.73771453935046,None,0,338.39459974676697,None,None,338.8941752542272,None,,,,,,,,,,,,,,,,,,,,,,,,,,,,,,,,,,,,,,,,,,,,,,11_JH,11,24,F,2022-11-30_11h37.31.576,dynamic target,2022.1.3,120.08303165676838,
1,4,3,2,L,0,24,24,24,,,,,,,None,339.92661532303896,None,338.9524924985792,339.95160348881814,339.4270482823381,None,2,"[0.008645716140335935, 0.5923479735579349]","[0.2583541902122306, 1.0999866584393203]",339.92661532303896,None,[0 1 1 1 2 0 3 3],space,0,2.304805019422247,0.0027521458746377903,None,340.5261189913267,None,1,342.8324396198168,None,None,343.33199107398275,None,,,,,,,,,,,,,,,,,,,,,,,,,,,,,,,,,,,,,,,,,,,,,,11_JH,11,24,F,2022-11-30_11h37.31.576,dynamic target,2022.1.3,120.08303165676838,
1,5,4,1,L,0,25,25,25,,,,,,,None,344.3561314733829,None,343.3653288117416,None,343.85655449065393,None,1,[0.008996894238634923],[0.5177635182722042],344.3561314733829,None,[3 2 1 0 1 3 1 2],space,0,2.4734186131895513,0.0021527377780330426,None,344.37281483838115,None,1,346.84562948433586,None,None,347.34521172671873,None,,,,,,,,,,,,,,,,,,,,,,,,,,,,,,,,,,,,,,,,,,,,,,11_JH,11,24,F,2022-11-30_11h37.31.576,dynamic target,2022.1.3,120.08303165676838,
1,4,4,2,L,0,26,26,26,,,,,,,None,348.3693194136383,None,347.3785093756535,348.37765885116323,347.8697616735449,None,2,"[0.00863769837565087, 0.559187460472458]","[0.30046573592176173, 1.0667456469952867]",348.3693194136383,None,[0 3 0 3 0 3 3 0],space,0,2.5510276900688496,0.0025696615477954765,None,348.93549130938436,None,1,351.49160956949095,None,None,351.99119822608543,None,,,,,,,,,,,,,,,,,,,,,,,,,,,,,,,,,,,,,,,,,,,,,,11_JH,11,24,F,2022-11-30_11h37.31.576,dynamic target,2022.1.3,120.08303165676838,
1,6,3,0,L,0,27,27,27,,,,,,,None,353.0236415020031,None,352.0328288983335,353.0319709974997,352.5240635571422,None,3,"[0.007895894776083878, 0.3159024988485726, 0.799631567671895]","[0.02446444538236392, 0.49936338947486547, 1.3071833399826573]",353.0236415020031,None,[0 1 0 1 0 1 1 2],space,0,5.30282431080559,0.0028320028118287155,None,353.8312687054454,None,1,359.1350178764085,None,None,359.6345808761556,None,,,,,,,,,,,,,,,,,,,,,,,,,,,,,,,,,,,,,,,,,,,,,,11_JH,11,24,F,2022-11-30_11h37.31.576,dynamic target,2022.1.3,120.08303165676838,
1,5,2,2,L,0,28,28,28,,,,,,,None,360.66702190709907,None,359.68456958714273,360.6837007821489,360.1674644877162,None,2,"[0.00940676237541993, 0.399812576730028]","[0.07515467871849069, 0.9004171161959675]",360.66702190709907,None,[0 3 2 0 3 1 3 3],space,0,1.6030597765225139,0.0026722889369921177,None,361.0667100481194,None,1,362.67363143169064,None,None,363.1732040527555,None,,,,,,,,,,,,,,,,,,,,,,,,,,,,,,,,,,,,,,,,,,,,,,11_JH,11,24,F,2022-11-30_11h37.31.576,dynamic target,2022.1.3,120.08303165676838,
1,4,3,2,L,0,29,29,29,,,,,,,None,364.20564091446136,None,363.2148539676391,364.21397714488035,363.70606778025945,None,3,"[0.008978613734825558, 0.775009653388679, 1.474315250814925]","[0.30830197852765195, 1.1749027284772637, 1.9745342961491588]",364.20564091446136,None,[3 1 3 0 0 2 0 3],space,0,2.158542067524877,0.0024404151790804463,None,365.67934681515135,None,1,367.8358394728032,None,None,368.3354040761034,None,,,,,,,,,,,,,,,,,,,,,,,,,,,,,,,,,,,,,,,,,,,,,,11_JH,11,24,F,2022-11-30_11h37.31.576,dynamic target,2022.1.3,120.08303165676838,
1,3,1,2,L,0,30,30,30,,,,,,,None,369.36783753827683,None,368.38539888059177,None,368.8599357424257,None,1,[0.009146666085143806],[0.51643128647288],369.36783753827683,None,[1 3 0 3 0 0 2 0],space,0,2.637762586845156,0.002640217877797113,None,369.3761656226468,None,1,372.01554163529045,None,None,372.515109124986,None,,,,,,,,,,,,,,,,,,,,,,,,,,,,,,,,,,,,,,,,,,,,,,11_JH,11,24,F,2022-11-30_11h37.31.576,dynamic target,2022.1.3,120.08303165676838,
1,2,3,2,L,0,31,31,31,,,,,,,None,373.5475713228286,None,372.5734616475031,373.57252100333676,373.0480187141045,None,1,[0.25792732441414046],[0.7584353299919258],373.5475713228286,None,[1 0 2 0 1 3 1 2],space,0,2.575930867541274,0.0024638270522245875,None,373.8056853008072,None,1,376.37844362998203,None,None,376.87802747591775,None,,,,,,,,,,,,,,,,,,,,,,,,,,,,,,,,,,,,,,,,,,,,,,11_JH,11,24,F,2022-11-30_11h37.31.576,dynamic target,2022.1.3,120.08303165676838,
1,1,4,2,L,0,32,32,32,,,,,,,None,377.9104489435151,None,376.9363418338744,377.93544352350614,377.4108863927627,None,2,"[0.008657261721737086, 0.7420957667484345]","[0.4259735811442624, 1.2495170098484323]",377.9104489435151,None,[1 0 3 1 2 1 2 2],space,0,2.4569308816526245,0.0028717709253669454,None,378.6598158608065,None,1,381.1160247537264,None,None,381.61559641265956,None,,,,,,,,,,,,,,,,,,,,,,,,,,,,,,,,,,,,,,,,,,,,,,11_JH,11,24,F,2022-11-30_11h37.31.576,dynamic target,2022.1.3,120.08303165676838,
1,7,4,0,L,0,33,33,33,,,,,,,None,382.64804610278907,None,381.67388575519,None,382.1484508395563,None,1,[0.00864635756147436],[0.516957251843678],382.64804610278907,None,[0 0 1 1 0 1 1 1],space,0,6.596274823236854,0.002950024309939181,None,382.66467751267123,None,1,389.258972199523,None,None,389.7585698360143,None,,,,,,,,,,,,,,,,,,,,,,,,,,,,,,,,,,,,,,,,,,,,,,11_JH,11,24,F,2022-11-30_11h37.31.576,dynamic target,2022.1.3,120.08303165676838,
1,6,2,2,L,0,34,34,34,,,,,,,None,390.79100092492945,None,389.8085117232549,None,390.2914348463603,None,1,[0.01696013823902831],[0.5257931493651995],390.79100092492945,None,[0 0 2 3 3 2 2 1],space,0,5.388049622824838,0.002333939262371132,None,390.81597594157415,None,1,396.20297452659906,None,None,396.7025468269536,None,,,,,,,,,,,,,,,,,,,,,,,,,,,,,,,,,,,,,,,,,,,,,,11_JH,11,24,F,2022-11-30_11h37.31.576,dynamic target,2022.1.3,120.08303165676838,
1,5,1,2,L,0,35,35,35,,,,,,,None,397.7349920271347,None,396.76085541211955,None,397.2354240243021,None,1,[0.008742891449628587],[0.517159940937745],397.7349920271347,None,[3 3 3 1 3 2 3 3],space,0,2.7079924337122065,0.00271622628838486,None,397.7516314547818,None,1,400.45764824205685,None,None,400.9571875092205,None,,,,,,,,,,,,,,,,,,,,,,,,,,,,,,,,,,,,,,,,,,,,,,11_JH,11,24,F,2022-11-30_11h37.31.576,dynamic target,2022.1.3,120.08303165676838,
1,3,2,0,L,0,36,36,36,,,,,,,None,401.9896484242206,None,401.0155316932621,None,401.49008170423053,None,1,[0.008669769434845875],[0.5171015716102829],401.9896484242206,None,[2 3 3 1 1 0 0 3],space,0,4.3895579247393925,0.002956117811208969,None,402.00630164242307,None,1,406.3941715981266,None,None,406.89373203218895,None,,,,,,,,,,,,,,,,,,,,,,,,,,,,,,,,,,,,,,,,,,,,,,11_JH,11,24,F,2022-11-30_11h37.31.576,dynamic target,2022.1.3,120.08303165676838,
1,2,3,2,L,0,37,37,37,,,,,,,None,407.9261791566337,None,406.94368001293105,407.9428410340222,407.426608267406,None,2,"[0.009360900760611912, 0.7171162601553078]","[0.05982695739294286, 1.2245410310717944]",407.9261791566337,None,[2 3 1 3 0 0 2 3],space,0,2.592459650034016,0.0025956391052659455,None,408.65054315545876,None,1,411.2483117794434,None,None,411.7478773448755,None,,,,,,,,,,,,,,,,,,,,,,,,,,,,,,,,,,,,,,,,,,,,,,11_JH,11,24,F,2022-11-30_11h37.31.576,dynamic target,2022.1.3,120.08303165676838,
1,3,2,1,L,0,38,38,38,,,,,,,None,412.7803398634285,None,411.78955419944873,None,412.2807792369397,None,1,[0.009081882545615372],[0.5177394649779217],412.7803398634285,None,[0 1 3 3 2 3 3 0],space,0,2.637411729457426,0.0023060374410306395,None,412.7969824981815,None,1,415.4363591522465,None,None,415.9359157377818,None,,,,,,,,,,,,,,,,,,,,,,,,,,,,,,,,,,,,,,,,,,,,,,11_JH,11,24,F,2022-11-30_11h37.31.576,dynamic target,2022.1.3,120.08303165676838,
1,5,3,0,L,0,39,39,39,,,,,,,None,416.9683695971489,None,415.99422977502786,None,416.4687999907635,None,1,[0.008082548340780704],[0.5169424991565847],416.9683695971489,None,[2 0 3 3 1 1 3 3],space,0,1.424791511092053,0.0019510108154463524,None,416.98500870408543,None,1,418.40877098569763,None,None,418.908381771323,None,,,,,,,,,,,,,,,,,,,,,,,,,,,,,,,,,,,,,,,,,,,,,,11_JH,11,24,F,2022-11-30_11h37.31.576,dynamic target,2022.1.3,120.08303165676838,
1,4,3,2,L,0,40,40,40,,,,,,,None,419.940798107551,None,418.96667079314284,419.96577761414414,419.4412352360878,None,1,[0.24966197103594823],[0.7582916516466867],419.940798107551,None,[2 2 0 2 0 1 3 3],space,0,1.8603238714322288,0.0028938999564616097,None,420.1989091991343,None,1,422.0639644447408,None,None,422.5635473285448,None,,,,,,,,,,,,,,,,,,,,,,,,,,,,,,,,,,,,,,,,,,,,,,11_JH,11,24,F,2022-11-30_11h37.31.576,dynamic target,2022.1.3,120.08303165676838,
1,3,4,2,L,0,41,41,41,,,,,,,None,423.59596494761513,None,422.6218100520962,423.6209553583685,423.0964046418369,None,1,[0.2829174144569606],[0.7831377426336985],423.59596494761513,None,[1 1 1 2 0 1 1 3],space,0,2.451690470578569,0.002896465641015311,None,423.879061639293,None,1,426.335269570081,None,None,426.8348306455647,None,,,,,,,,,,,,,,,,,,,,,,,,,,,,,,,,,,,,,,,,,,,,,,11_JH,11,24,F,2022-11-30_11h37.31.576,dynamic target,2022.1.3,120.08303165676838,
1,2,3,2,L,0,42,42,42,,,,,,,None,427.86727873214113,None,426.8847969068104,427.8839197633413,427.36777519213774,None,1,[0.13324466754511377],[0.6418823659205373],427.86727873214113,None,[3 0 1 3 1 0 3 2],space,0,2.1930409059111753,0.0026921729938749195,None,428.0088243519401,None,1,430.2069192668812,None,None,430.70646719323065,None,,,,,,,,,,,,,,,,,,,,,,,,,,,,,,,,,,,,,,,,,,,,,,11_JH,11,24,F,2022-11-30_11h37.31.576,dynamic target,2022.1.3,120.08303165676838,
1,8,2,0,L,0,43,43,43,,,,,,,None,431.73893914067514,None,430.76477866479195,None,431.23937197169016,None,1,[0.008669128013480076],[0.5089831036830219],431.73893914067514,None,[0 1 3 3 2 2 0 2],space,0,2.6947047524627123,0.002421493254132656,None,431.7472418889083,None,1,434.4449147487105,None,None,434.9444931425661,None,,,,,,,,,,,,,,,,,,,,,,,,,,,,,,,,,,,,,,,,,,,,,,11_JH,11,24,F,2022-11-30_11h37.31.576,dynamic target,2022.1.3,120.08303165676838,
1,7,3,2,L,0,44,44,44,,,,,,,None,435.9769380220366,None,435.0028536828479,436.00190854873335,435.47739856244675,None,1,[0.04981533484101419],[0.5501697200452327],435.9769380220366,None,[2 2 2 1 2 0 0 2],space,0,2.30294682225167,0.002496218821988805,None,436.0268999216182,None,1,438.3332160601601,None,None,438.83279637827934,None,,,,,,,,,,,,,,,,,,,,,,,,,,,,,,,,,,,,,,,,,,,,,,11_JH,11,24,F,2022-11-30_11h37.31.576,dynamic target,2022.1.3,120.08303165676838,
1,6,2,2,L,0,45,45,45,,,,,,,None,439.85691529007,None,438.8661145526921,None,439.35733349668203,None,1,[0.00881024067416547],[0.5175358137519197],439.85691529007,None,[3 0 3 1 1 2 1 2],space,0,1.3995535117617237,0.002566454441875976,None,439.8735771674583,None,1,441.27236090460906,None,None,441.7719283943046,None,,,,,,,,,,,,,,,,,,,,,,,,,,,,,,,,,,,,,,,,,,,,,,11_JH,11,24,F,2022-11-30_11h37.31.576,dynamic target,2022.1.3,120.08303165676838,
1,5,3,2,L,0,46,46,46,,,,,,,None,442.8043861021988,None,441.821877657889,442.8210143049753,442.3048498497151,None,2,"[0.008469966735901835, 0.84972720357041]","[0.32592502556076397, 1.3581897939627652]",442.8043861021988,None,[0 1 2 2 0 2 2 2],space,0,0.9868903823189612,0.002612957477595046,None,443.6619675081686,None,1,444.65275285143775,None,None,445.1523546571667,None,,,,,,,,,,,,,,,,,,,,,,,,,,,,,,,,,,,,,,,,,,,,,,11_JH,11,24,F,2022-11-30_11h37.31.576,dynamic target,2022.1.3,120.08303165676838,
1,4,1,2,L,0,47,47,47,,,,,,,None,446.184772276237,None,445.21062924701005,446.2097501792773,445.68520331127274,None,2,"[0.008654054615817586, 0.8003817097467163]","[0.5182837108525291, 1.3082612482826335]",446.184772276237,None,[0 0 3 3 0 2 3 1],space,0,3.400226683294477,0.0026498391955556144,None,446.99241038383934,None,1,450.39780236273896,None,None,450.897350609799,None,,,,,,,,,,,,,,,,,,,,,,,,,,,,,,,,,,,,,,,,,,,,,,11_JH,11,24,F,2022-11-30_11h37.31.576,dynamic target,2022.1.3,120.08303165676838,
1,3,4,2,L,0,48,48,48,,,,,,,None,451.9297913200319,None,450.9390216915815,451.9381390960323,451.4219124229171,None,2,"[3.7225458904786137, 4.147509874679145]","[3.9144055500892136, 4.655158822299427]",451.9297913200319,None,[1 2 3 0 1 3 2 3],space,0,2.812637413500852,0.0029817746583375992,None,456.07621430651466,None,1,458.89045584520704,None,None,459.3900371254582,None,,,,,,,,,,,,,,,,,,,,,,,,,,,,,,,,,,,,,,,,,,,,,,11_JH,11,24,F,2022-11-30_11h37.31.576,dynamic target,2022.1.3,120.08303165676838,
1,2,4,2,L,0,49,49,49,,,,,,,None,460.42247270432154,None,459.43998895472714,None,459.92290502219953,None,1,[0.008694143439697655],[0.517187522048971],460.42247270432154,None,[1 1 2 1 2 2 0 0],space,0,2.417004337206663,0.002864073871251094,None,460.43913233673584,None,1,462.85369022435634,None,None,463.35331095201,None,,,,,,,,,,,,,,,,,,,,,,,,,,,,,,,,,,,,,,,,,,,,,,11_JH,11,24,F,2022-11-30_11h37.31.576,dynamic target,2022.1.3,120.08303165676838,
1,5,1,0,L,0,50,50,50,,,,,,,None,464.37738656787064,None,463.3865688328315,None,463.8778092644311,None,1,[0.009130309844977091],[0.5177490862954528],464.37738656787064,None,[0 2 2 2 0 1 2 3],space,0,1.3252018923656124,0.0022640243535079208,None,464.3940356168355,None,1,465.71788083420665,None,None,466.21745024816585,None,,,,,,,,,,,,,,,,,,,,,,,,,,,,,,,,,,,,,,,,,,,,,,11_JH,11,24,F,2022-11-30_11h37.31.576,dynamic target,2022.1.3,120.08303165676838,
1,4,4,2,L,0,51,51,51,,,,,,,None,467.2498960897681,None,466.2590943902585,467.2582390551097,466.75033321830506,None,2,"[0.008437254255568405, 0.5997496533118465]","[0.3247345478430361, 1.1084880548132787]",467.2498960897681,None,[3 1 1 0 2 3 3 1],space,0,2.9176451169694246,0.002436566652249894,None,467.8577122558911,None,1,470.7801772631585,None,None,471.27972903803504,None,,,,,,,,,,,,,,,,,,,,,,,,,,,,,,,,,,,,,,,,,,,,,,11_JH,11,24,F,2022-11-30_11h37.31.576,dynamic target,2022.1.3,120.08303165676838,
1,3,1,2,L,0,52,52,52,,,,,,,None,472.31220278145884,None,471.338037623201,None,471.8126274022827,None,1,[0.008668807303138237],[0.5171259456153621],472.31220278145884,None,[3 3 0 1 0 2 2 1],space,0,2.351920612499498,0.0028695259516098304,None,472.328839002,None,1,474.68512986854716,None,None,475.1847153180357,None,,,,,,,,,,,,,,,,,,,,,,,,,,,,,,,,,,,,,,,,,,,,,,11_JH,11,24,F,2022-11-30_11h37.31.576,dynamic target,2022.1.3,120.08303165676838,
1,4,1,1,L,0,53,53,53,,,,,,,None,476.21715217974156,None,475.2429886250368,None,475.7175793662502,None,1,[0.02484128032801891],[0.5249301171620573],476.21715217974156,None,[3 1 0 0 1 1 3 2],space,0,2.3102744178588637,0.002927574568275304,None,476.24211853720044,None,1,478.54846321898503,None,None,479.04803872644527,None,,,,,,,,,,,,,,,,,,,,,,,,,,,,,,,,,,,,,,,,,,,,,,11_JH,11,24,F,2022-11-30_11h37.31.576,dynamic target,2022.1.3,120.08303165676838,
1,3,2,2,L,0,54,54,54,,,,,,,None,480.0721990099023,None,479.0813293197473,None,479.5725800140856,None,1,[0.008115581531683347],[0.516925180784483],480.0721990099023,None,[1 2 1 1 3 0 2 1],space,0,3.4212120601741844,0.0017993147059769399,None,480.08879674517243,None,1,483.5108390558794,None,None,484.01039371715126,None,,,,,,,,,,,,,,,,,,,,,,,,,,,,,,,,,,,,,,,,,,,,,,11_JH,11,24,F,2022-11-30_11h37.31.576,dynamic target,2022.1.3,120.08303165676838,
1,2,3,2,L,0,55,55,55,,,,,,,None,485.0428575185467,None,484.0603772967688,None,484.5432891950036,None,1,[0.008232961608428013],[0.5168764327745521],485.0428575185467,None,[2 2 2 0 3 2 2 2],space,0,1.7637181440541099,0.00270211502197526,None,485.05950528466906,None,1,486.8246364104018,None,None,487.3242067864927,None,,,,,,,,,,,,,,,,,,,,,,,,,,,,,,,,,,,,,,,,,,,,,,11_JH,11,24,F,2022-11-30_11h37.31.576,dynamic target,2022.1.3,120.08303165676838,
1,1,1,2,L,0,56,56,56,,,,,,,None,488.34831992549243,None,487.35753073369597,None,487.8487766173755,None,1,[0.00864443329783171],[0.5176775678335162],488.34831992549243,None,[2 2 0 1 3 2 3 1],space,0,3.0168947824683983,0.0022970575444105634,None,488.3649939898835,None,1,491.3873555359139,None,None,491.8869656801181,None,,,,,,,,,,,,,,,,,,,,,,,,,,,,,,,,,,,,,,,,,,,,,,11_JH,11,24,F,2022-11-30_11h37.31.576,dynamic target,2022.1.3,120.08303165676838,
1,8,1,2,L,0,57,57,57,,,,,,,None,492.9193666222375,None,491.9452223101682,None,492.4198066371698,None,1,[0.00865180964137835],[0.5172830938051902],492.9193666222375,None,[0 3 2 1 1 0 2 3],space,0,1.8548695463932745,0.0027454109517748293,None,492.9360208025719,None,1,494.7927616260797,None,None,495.29230826958667,None,,,,,,,,,,,,,,,,,,,,,,,,,,,,,,,,,,,,,,,,,,,,,,11_JH,11,24,F,2022-11-30_11h37.31.576,dynamic target,2022.1.3,120.08303165676838,
1,7,1,2,L,0,58,58,58,,,,,,,None,496.32478008874705,None,495.34228511428205,496.3414268927377,495.8168883632086,None,5,"[0.01775004842738781, 0.050139573249680325, 0.10841525350883785, 0.16669734798006175, 0.1916864758909469]","[0.04189699032349381, 0.06678766008258208, 0.15892556820290338, 0.1834159911431925, 0.6918519625564841]",496.32478008874705,None,[0 0 3 1 2 2 2 1],space,0,1.7550858977585904,0.003121604476518769,None,496.50796484755347,None,1,498.2647623085518,None,None,498.7643275532731,None,,,,,,,,,,,,,,,,,,,,,,,,,,,,,,,,,,,,,,,,,,,,,,11_JH,11,24,F,2022-11-30_11h37.31.576,dynamic target,2022.1.3,120.08303165676838,
1,6,3,2,L,0,59,59,59,,,,,,,None,499.7967733948756,None,498.8226245928579,499.82177984115856,499.29720924057006,None,20,"[0.008628077057664996, 0.12520092518593628, 0.14184099425415297, 0.19172624400425775, 0.2166868286724366, 0.2750510250550633, 0.3000420772295911, 0.35826836805767925, 0.4499261724217831, 0.49148545449179437, 0.7255948860772605, 0.7501994819881475, 0.7919476625970674, 0.8501213568879393, 0.8672498681878551, 0.9000043616640596, 0.9672705219500131, 1.0334834686518661, 1.0497014825809856, 1.5082098704456257]","[0.0918816603571031, 0.1343116716845998, 0.1501576613270572, 0.20004996671013942, 0.2416782015575336, 0.29162021708248176, 0.30830839273949096, 0.3665603404149351, 0.4581511162652987, 0.4998197606471422, 0.7340510622575493, 0.7583994104056728, 0.8172488419140791, 0.8581708720378174, 0.8837424103837748, 0.908199479422592, 0.975154550434354, 1.0415916738397755, 1.2416336227852298, 2.0161814529215007]",499.7967733948756,None,[3 3 1 2 3 0 2 2],space,0,2.357170003469946,0.0024157204634320806,None,501.3121197174155,None,1,503.66842212954407,None,space,504.1846353328142,None,38.86414898666362,,,,,,,,,,,,,,,,,,,,,,,,,,,,,,,,,,,,,,,,,,,,,11_JH,11,24,F,2022-11-30_11h37.31.576,dynamic target,2022.1.3,120.08303165676838,
1,4,1,0,L,0,60,60,60,,,,,,,None,544.0918037276833,None,543.1093777059957,None,543.592226103533,None,1,[0.008647319693409372],[0.5174161887009632],544.0918037276833,None,[0 1 1 1 1 0 2 1],space,0,2.0069267765570658,0.002399043512696153,None,544.1084640015188,None,1,546.1150809024539,None,None,546.6146442229118,None,,,,,,,,,,,,,,,,,,,,,,,,,,,,,,,,,,,,,,,,,,,,,,11_JH,11,24,F,2022-11-30_11h37.31.576,dynamic target,2022.1.3,120.08303165676838,
1,3,3,2,L,0,61,61,61,,,,,,,None,547.6470518999538,None,546.6562764987127,None,547.147497366966,None,1,[0.009128385581334442],[0.5179761493945989],547.6470518999538,None,[1 2 1 1 3 2 1 2],space,0,2.0031183382764084,0.0020004002467430837,None,547.6637339821095,None,1,549.6703316404089,None,None,550.1698837359962,None,,,,,,,,,,,,,,,,,,,,,,,,,,,,,,,,,,,,,,,,,,,,,,11_JH,11,24,F,2022-11-30_11h37.31.576,dynamic target,2022.1.3,120.08303165676838,
1,2,1,2,L,0,62,62,62,,,,,,,None,551.2023279740456,None,550.2282346549603,None,550.7027413699986,None,1,[0.0082223781587345],[0.5170120933548787],551.2023279740456,None,[3 0 2 0 1 3 3 3],space,0,1.7280605782987095,0.0024946152691427415,None,551.2189863236174,None,1,552.9508280106065,None,None,553.4503897275114,None,,,,,,,,,,,,,,,,,,,,,,,,,,,,,,,,,,,,,,,,,,,,,,11_JH,11,24,F,2022-11-30_11h37.31.576,dynamic target,2022.1.3,120.08303165676838,
1,1,4,2,L,0,63,63,63,,,,,,,None,554.4828230614007,None,553.5086809943055,None,553.9832640384648,None,1,[0.008715310338857307],[0.517737540714279],554.4828230614007,None,[1 0 1 3 1 0 0 3],space,0,2.9756889234706705,0.0023047545987537887,None,554.4994820523939,None,1,557.4802406997135,None,None,557.9798123586469,None,,,,,,,,,,,,,,,,,,,,,,,,,,,,,,,,,,,,,,,,,,,,,,11_JH,11,24,F,2022-11-30_11h37.31.576,dynamic target,2022.1.3,120.08303165676838,
1,8,1,2,L,0,64,64,64,,,,,,,None,559.012261407355,None,558.0381142088904,559.0372425175012,558.5127071950781,None,4,"[0.009332678228474833, 0.56723344780562, 0.842037846415451, 1.6160475241783843]","[0.059309971918537485, 0.5835665968372723, 1.3161241098675873, 2.1242564324923023]",559.012261407355,None,[1 1 3 0 0 1 0 2],space,0,2.1821931908457373,0.0026228995061501337,None,560.6358642316609,None,1,562.8172738573403,None,None,563.3168593068289,None,,,,,,,,,,,,,,,,,,,,,,,,,,,,,,,,,,,,,,,,,,,,,,11_JH,11,24,F,2022-11-30_11h37.31.576,dynamic target,2022.1.3,120.08303165676838,
1,7,3,2,L,0,65,65,65,,,,,,,None,564.349302262036,None,563.3751486493595,None,563.8497339384928,None,1,[0.0091841892242428],[0.5174719923438715],564.349302262036,None,[3 2 0 1 3 1 0 0],space,0,1.7320591979605524,0.002463827052679335,None,564.3659481038949,None,1,566.0977978086487,None,None,566.5973566391582,None,,,,,,,,,,,,,,,,,,,,,,,,,,,,,,,,,,,,,,,,,,,,,,11_JH,11,24,F,2022-11-30_11h37.31.576,dynamic target,2022.1.3,120.08303165676838,
1,6,1,2,L,0,66,66,66,,,,,,,None,567.6298031221818,None,566.647296922846,None,567.1302242151892,None,1,[0.008669769434845875],[0.5174299792563488],567.6298031221818,None,[3 0 2 0 3 1 2 3],space,0,2.4675784733085493,0.002661064066387553,None,567.6464419084077,None,1,570.1192947189229,None,None,570.6188734334891,None,,,,,,,,,,,,,,,,,,,,,,,,,,,,,,,,,,,,,,,,,,,,,,11_JH,11,24,F,2022-11-30_11h37.31.576,dynamic target,2022.1.3,120.08303165676838,
1,5,1,2,L,0,67,67,67,,,,,,,None,571.6513301792515,None,570.6688243006265,None,571.1517454994682,None,1,[0.008652771773313361],[0.5173908525641764],571.6513301792515,None,[3 0 3 0 0 2 1 1],space,0,1.725197274133052,0.0027171884203198715,None,571.6679708897409,None,1,573.3914779498639,None,None,573.8910521744818,None,,,,,,,,,,,,,,,,,,,,,,,,,,,,,,,,,,,,,,,,,,,,,,11_JH,11,24,F,2022-11-30_11h37.31.576,dynamic target,2022.1.3,120.08303165676838,
1,4,1,2,L,0,68,68,68,,,,,,,None,574.9234964125312,None,573.9410177943064,574.9401326330724,574.4239341824893,None,1,[0.042348550837232324],[0.5500160996716659],574.9234964125312,None,[3 3 3 0 3 2 3 2],space,0,2.628261856266363,0.0027858204871336056,None,574.9734589535342,None,1,577.6045029049965,None,None,578.104075205351,None,,,,,,,,,,,,,,,,,,,,,,,,,,,,,,,,,,,,,,,,,,,,,,11_JH,11,24,F,2022-11-30_11h37.31.576,dynamic target,2022.1.3,120.08303165676838,
1,3,4,2,L,0,69,69,69,,,,,,,None,579.1281979656685,None,578.1373728542858,None,578.6286241900455,None,1,[0.008617493608198856],[0.5175367758836273],579.1281979656685,None,[3 1 0 2 1 0 1 1],space,0,2.680068803884069,0.002530855565737511,None,579.1448515045818,None,1,581.8258554313622,None,None,582.3254338252178,None,,,,,,,,,,,,,,,,,,,,,,,,,,,,,,,,,,,,,,,,,,,,,,11_JH,11,24,F,2022-11-30_11h37.31.576,dynamic target,2022.1.3,120.08303165676838,
1,2,4,2,L,0,70,70,70,,,,,,,None,583.3578552928152,None,582.3753843716445,None,582.8582933834839,None,1,[0.009476035863144716],[0.5178331124707256],583.3578552928152,None,[1 0 0 2 3 3 3 2],space,0,2.305824237683737,0.002206617157526125,None,583.3745649560819,None,1,585.6808567206187,None,None,586.1804312659473,None,,,,,,,,,,,,,,,,,,,,,,,,,,,,,,,,,,,,,,,,,,,,,,11_JH,11,24,F,2022-11-30_11h37.31.576,dynamic target,2022.1.3,120.08303165676838,
1,1,3,2,L,0,71,71,71,,,,,,,None,587.2128928223688,None,586.2387379268498,None,586.7133103875594,None,1,[0.008636736243715859],[0.5176377997199779],587.2128928223688,None,[1 3 2 3 0 0 2 1],space,0,2.0027030180597194,0.0023403534744375065,None,587.229529684331,None,1,589.236125418367,None,None,589.73568072106,None,,,,,,,,,,,,,,,,,,,,,,,,,,,,,,,,,,,,,,,,,,,,,,11_JH,11,24,F,2022-11-30_11h37.31.576,dynamic target,2022.1.3,120.08303165676838,
1,8,3,2,L,0,72,72,72,,,,,,,None,590.768118224187,None,589.794027791497,None,590.2685534284603,None,1,[0.00868099430545044],[0.5175050255350016],590.768118224187,None,[3 0 3 1 3 3 0 2],space,0,1.8558297539059367,0.0025584366767361644,None,590.7847833086814,None,1,592.641502323869,None,None,593.1410537780349,None,,,,,,,,,,,,,,,,,,,,,,,,,,,,,,,,,,,,,,,,,,,,,,11_JH,11,24,F,2022-11-30_11h37.31.576,dynamic target,2022.1.3,120.08303165676838,
1,7,1,2,L,0,73,73,73,,,,,,,None,594.173526559327,None,593.1993671738599,594.1985028588142,593.673951821572,None,2,"[0.025236716487825106, 0.7250179277220923]","[0.25833334402364017, 1.225056092282557]",594.173526559327,None,[2 0 2 2 3 2 1 3],space,0,1.8546928348571328,0.0026940972575175692,None,594.897896010232,None,1,596.7546240053161,None,None,597.254208492673,None,,,,,,,,,,,,,,,,,,,,,,,,,,,,,,,,,,,,,,,,,,,,,,11_JH,11,24,F,2022-11-30_11h37.31.576,dynamic target,2022.1.3,120.08303165676838,
1,6,2,2,L,0,74,74,74,,,,,,,None,598.2866322052446,None,597.2958151116266,598.294959455767,597.7870693337816,None,1,[0.04983618102960463],[0.5585463599988998],598.2866322052446,None,[0 2 3 0 3 1 0 1],space,0,1.3998363785040056,0.002761125770803119,None,598.3449001884496,None,1,599.7436698143342,None,None,600.2432510945852,None,,,,,,,,,,,,,,,,,,,,,,,,,,,,,,,,,,,,,,,,,,,,,,11_JH,11,24,F,2022-11-30_11h37.31.576,dynamic target,2022.1.3,120.08303165676838,
1,5,4,2,L,0,75,75,75,,,,,,,None,601.275698860451,None,600.3015506998547,601.3006924783103,600.7761449688846,None,4,"[0.008614927923645155, 0.6342603579901152, 1.316028538111368, 1.8574008459063407]","[0.19166306401780275, 0.984320779865584, 1.600211476564482, 2.365771392358738]",601.275698860451,None,[0 3 0 3 0 2 1 0],space,0,1.0031593892322235,0.002500388059843317,None,603.1407678966132,None,1,604.1482279456948,None,None,604.6477835690984,None,,,,,,,,,,,,,,,,,,,,,,,,,,,,,,,,,,,,,,,,,,,,,,11_JH,11,24,F,2022-11-30_11h37.31.576,dynamic target,2022.1.3,120.08303165676838,
1,4,2,2,L,0,76,76,76,,,,,,,None,605.6802704616564,None,604.706125508166,None,605.1806707084754,None,1,[0.00884167031222205],[0.5172102925009767],605.6802704616564,None,[0 3 2 0 0 2 1 1],space,0,2.4145108123534555,0.002709170654952686,None,605.6968887224045,None,1,608.1114899059548,None,None,608.611023079617,None,,,,,,,,,,,,,,,,,,,,,,,,,,,,,,,,,,,,,,,,,,,,,,11_JH,11,24,F,2022-11-30_11h37.31.576,dynamic target,2022.1.3,120.08303165676838,
1,3,4,2,L,0,77,77,77,,,,,,,None,609.6434807875112,None,608.669333268336,609.6684525970502,609.1439031633611,None,1,[0.03310759583791878],[0.5419992970023486],609.6434807875112,None,[0 3 3 3 0 1 3 3],space,0,2.314483102958093,0.002598204790501768,None,609.6851221714928,None,1,611.9997755025856,None,None,612.499340747307,None,,,,,,,,,,,,,,,,,,,,,,,,,,,,,,,,,,,,,,,,,,,,,,11_JH,11,24,F,2022-11-30_11h37.31.576,dynamic target,2022.1.3,120.08303165676838,
1,2,4,2,L,0,78,78,78,,,,,,,None,613.5317830610927,None,612.5493342689531,613.5484417313753,613.0238778657094,None,1,[0.041490008582286464],[0.5502874208325466],613.5317830610927,None,[0 3 0 1 3 0 1 1],space,0,2.234147986046537,0.0026960215207054716,None,613.5734238036532,None,1,615.8048030259686,None,None,616.3044099630669,None,,,,,,,,,,,,,,,,,,,,,,,,,,,,,,,,,,,,,,,,,,,,,,11_JH,11,24,F,2022-11-30_11h37.31.576,dynamic target,2022.1.3,120.08303165676838,
1,1,1,2,L,0,79,79,79,,,,,,,None,617.3285179706972,None,616.3376922178934,None,616.8289345737564,None,1,[0.008991762869300146],[0.5176172742421841],617.3285179706972,None,[0 3 0 1 0 0 3 0],space,0,2.237863097544505,0.002397760670419302,None,617.3451599640291,None,1,619.5848799067116,None,None,620.084434247273,None,,,,,,,,,,,,,,,,,,,,,,,,,,,,,,,,,,,,,,,,,,,,,,11_JH,11,24,F,2022-11-30_11h37.31.576,dynamic target,2022.1.3,120.08303165676838,
1,8,1,2,L,0,80,80,80,,,,,,,None,621.1169432688619,None,620.1344200718647,None,620.6089829112568,None,1,[0.024832621141968048],[0.5251190157007386],621.1169432688619,None,[2 0 0 0 0 2 3 3],space,0,2.1775662991342415,0.002762408613534717,None,621.1335547946876,None,1,623.3149852665554,None,None,623.814560453305,None,,,,,,,,,,,,,,,,,,,,,,,,,,,,,,,,,,,,,,,,,,,,,,11_JH,11,24,F,2022-11-30_11h37.31.576,dynamic target,2022.1.3,120.08303165676838,
1,7,1,2,L,0,81,81,81,,,,,,,None,624.8469867315614,None,623.8728905260807,624.8719668795757,624.3391084758678,None,1,[0.09191693852244498],[0.5997432391000075],624.8469867315614,None,[3 3 3 0 0 0 3 1],space,0,1.7482961338143923,0.0031074932103365427,None,624.938584242334,None,1,626.6870602256006,None,None,627.1866469579317,None,,,,,,,,,,,,,,,,,,,,,,,,,,,,,,,,,,,,,,,,,,,,,,11_JH,11,24,F,2022-11-30_11h37.31.576,dynamic target,2022.1.3,120.08303165676838,
1,6,4,2,L,0,82,82,82,,,,,,,None,628.2190825367952,None,627.2449985183171,628.2440668540471,627.7195270416757,None,1,[0.166481189040951],[0.6664962624388409],628.2190825367952,None,[1 2 3 2 2 3 2 0],space,0,2.5252152980683604,0.0028204572304275644,None,628.3856076631871,None,1,630.908406017044,None,None,631.4080145576951,None,,,,,,,,,,,,,,,,,,,,,,,,,,,,,,,,,,,,,,,,,,,,,,11_JH,11,24,F,2022-11-30_11h37.31.576,dynamic target,2022.1.3,120.08303165676838,
1,5,2,2,L,0,83,83,83,,,,,,,None,632.440432497476,None,631.4663369334166,632.4654232289399,631.9408641739328,None,1,[0.22462601937854743],[0.7246657874918583],632.440432497476,None,[0 3 3 0 3 2 2 3],space,0,2.549475450803584,0.0028781851372059464,None,632.665242925445,None,1,635.2130355385821,None,None,635.7126039904093,None,,,,,,,,,,,,,,,,,,,,,,,,,,,,,,,,,,,,,,,,,,,,,,11_JH,11,24,F,2022-11-30_11h37.31.576,dynamic target,2022.1.3,120.08303165676838,
1,4,4,2,L,0,84,84,84,,,,,,,None,636.7450421349577,None,635.7542407561587,None,636.2454808670475,None,1,[0.00918611348788545],[0.5176390825624821],636.7450421349577,None,[2 0 0 2 3 2 2 3],space,0,2.323692628319577,0.002336184236810368,None,636.7617049744779,None,1,639.084722437811,None,None,639.5842661949226,None,,,,,,,,,,,,,,,,,,,,,,,,,,,,,,,,,,,,,,,,,,,,,,11_JH,11,24,F,2022-11-30_11h37.31.576,dynamic target,2022.1.3,120.08303165676838,
1,3,4,2,L,0,85,85,85,,,,,,,None,640.6166873418094,None,639.6342270040884,640.6333598026474,640.1171219046616,None,1,[0.1420622845625985],[0.6498096903346777],640.6166873418094,None,[0 3 0 2 1 0 2 2],space,0,2.895430456390386,0.0025590780981019634,None,640.7665749648181,None,1,643.6640697660994,None,None,644.1636378972161,None,,,,,,,,,,,,,,,,,,,,,,,,,,,,,,,,,,,,,,,,,,,,,,11_JH,11,24,F,2022-11-30_11h37.31.576,dynamic target,2022.1.3,120.08303165676838,
1,2,4,2,L,0,86,86,86,,,,,,,None,645.1877519983477,None,644.1969278490967,None,644.688176298461,None,1,[0.009673272877307681],[0.5175438315166048],645.1877519983477,None,[0 0 0 1 0 1 2 1],space,0,2.600636487288739,0.002496860243354604,None,645.2043907845737,None,1,647.8104959596878,None,None,648.3100329818773,None,,,,,,,,,,,,,,,,,,,,,,,,,,,,,,,,,,,,,,,,,,,,,,11_JH,11,24,F,2022-11-30_11h37.31.576,dynamic target,2022.1.3,120.08303165676838,
1,1,3,2,L,0,87,87,87,,,,,,,None,649.3424849169808,None,648.3600223342855,None,648.8429178762801,None,1,[0.009493674945815656],[0.5176852648878594],649.3424849169808,None,[2 1 3 2 1 2 1 3],space,0,2.8777961844866695,0.0023102066784304043,None,649.3591467943693,None,1,652.23998933958,None,None,652.7395475286684,None,,,,,,,,,,,,,,,,,,,,,,,,,,,,,,,,,,,,,,,,,,,,,,11_JH,11,24,F,2022-11-30_11h37.31.576,dynamic target,2022.1.3,120.08303165676838,
1,8,3,2,L,0,88,88,88,,,,,,,None,653.7636767031977,None,652.7895827426912,None,653.2640929855463,None,1,[0.008633849848365571],[0.5172436464024486],653.7636767031977,None,[3 1 3 0 1 1 2 0],space,0,1.9293504121578735,0.002792234698517859,None,653.7803158101342,None,1,655.711981362866,None,None,656.2115491732721,None,,,,,,,,,,,,,,,,,,,,,,,,,,,,,,,,,,,,,,,,,,,,,,11_JH,11,24,F,2022-11-30_11h37.31.576,dynamic target,2022.1.3,120.08303165676838,
1,7,3,2,L,0,89,89,89,,,,,,,None,657.2439956562957,None,656.2698830945749,657.2689738800466,656.7444180321454,None,1,[0.07474833839842177],[0.583628814692247],657.2439956562957,None,[3 2 3 1 3 1 1 0],space,0,1.3574871862454074,0.0026225787953535473,None,657.3272582194918,None,1,658.6844124389527,None,None,659.1839594031704,None,,,,,,,,,,,,,,,,,,,,,,,,,,,,,,,,,,,,,,,,,,,,,,11_JH,11,24,F,2022-11-30_11h37.31.576,dynamic target,2022.1.3,120.08303165676838,
1,6,1,2,L,0,90,90,90,,,,,,,None,660.208101726834,None,659.2172904060067,None,659.7085327618697,None,1,[0.008825634782624547],[0.5174912349796159],660.208101726834,None,[1 2 2 2 0 0 0 0],space,0,2.043571489514534,0.002477296896813641,None,660.2247533414836,None,1,662.2729801967623,None,None,662.7725480071684,None,,,,,,,,,,,,,,,,,,,,,,,,,,,,,,,,,,,,,,,,,,,,,,11_JH,11,24,F,2022-11-30_11h37.31.576,dynamic target,2022.1.3,120.08303165676838,
1,5,3,2,L,0,91,91,91,,,,,,,None,663.7966912929639,None,662.8058681058446,None,663.29709538831,None,1,[0.009549799299293227],[0.5175422279637587],663.7966912929639,None,[2 3 0 2 0 3 2 1],space,0,1.8953518822952446,0.00254528754248895,None,663.8133114779755,None,1,665.7116606522741,None,None,666.2112409703933,None,,,,,,,,,,,,,,,,,,,,,,,,,,,,,,,,,,,,,,,,,,,,,,11_JH,11,24,F,2022-11-30_11h37.31.576,dynamic target,2022.1.3,120.08303165676838,
1,4,4,2,L,0,92,92,92,,,,,,,None,667.2436848877321,None,666.2695328786085,None,666.7441075842924,None,1,[0.008653733905021],[0.5172365907694711],667.2436848877321,None,[3 2 1 0 0 3 3 0],space,0,2.128245179315627,0.00265561198625619,None,667.2603371438029,None,1,669.3918118095903,None,None,669.8913895620248,None,,,,,,,,,,,,,,,,,,,,,,,,,,,,,,,,,,,,,,,,,,,,,,11_JH,11,24,F,2022-11-30_11h37.31.576,dynamic target,2022.1.3,120.08303165676838,
1,3,2,2,L,0,93,93,93,,,,,,,None,670.9238270651517,None,669.9497488194643,670.9488187587474,670.4242670800841,None,1,[0.05814515104839302],[0.5582381571200585],670.9238270651517,None,[2 0 3 0 1 0 3 2],space,0,3.590071318255241,0.00289678635135715,None,670.9821255158629,None,1,674.5706826902231,None,None,675.0702543491562,None,,,,,,,,,,,,,,,,,,,,,,,,,,,,,,,,,,,,,,,,,,,,,,11_JH,11,24,F,2022-11-30_11h37.31.576,dynamic target,2022.1.3,120.08303165676838,
1,2,1,2,L,0,94,94,94,,,,,,,None,676.1026912108621,None,675.1118580817144,None,675.6031276979779,None,1,[0.008638660507358509],[0.5175255510130228],676.1026912108621,None,[0 3 1 1 0 0 2 2],space,0,2.0682229091719364,0.002449074364903936,None,676.1193296763774,None,1,678.1925402074869,None,None,678.6921176392108,None,,,,,,,,,,,,,,,,,,,,,,,,,,,,,,,,,,,,,,,,,,,,,,11_JH,11,24,F,2022-11-30_11h37.31.576,dynamic target,2022.1.3,120.08303165676838,
1,1,2,2,L,0,95,95,95,,,,,,,None,679.7245593115754,None,678.7504554090408,None,679.2249730282392,None,1,[0.008635132690869796],[0.5175945037901784],679.7245593115754,None,[0 3 1 2 1 0 3 0],space,0,2.734141892545267,0.002431435282687744,None,679.741200022065,None,1,682.4805113794532,None,None,682.980083359097,None,,,,,,,,,,,,,,,,,,,,,,,,,,,,,,,,,,,,,,,,,,,,,,11_JH,11,24,F,2022-11-30_11h37.31.576,dynamic target,2022.1.3,120.08303165676838,
1,8,3,2,L,0,96,96,96,,,,,,,None,684.0125009781673,None,683.0300903505879,None,683.5129355410195,None,1,[0.009196055516213164],[0.5170810461322617],684.0125009781673,None,[0 1 0 0 1 3 0 1],space,0,1.7268030720674687,0.0027765198794895696,None,684.0291885124032,None,1,685.7609984490437,None,None,686.2605524688942,None,,,,,,,,,,,,,,,,,,,,,,,,,,,,,,,,,,,,,,,,,,,,,,11_JH,11,24,F,2022-11-30_11h37.31.576,dynamic target,2022.1.3,120.08303165676838,
1,7,2,2,L,0,97,97,97,,,,,,,None,687.2930345507934,None,686.3105293135895,687.3096624328593,686.7934354390336,None,3,"[0.008652771773540735, 0.7339955793252102, 1.5078679929547434]","[0.22503364254112057, 1.2080847291729242, 2.0156449041012365]",687.2930345507934,None,[0 3 0 3 0 1 2 2],space,0,2.899244988172086,0.0030311640896343306,None,688.8083712520156,None,1,691.7058612426381,None,None,692.2054277702019,None,,,,,,,,,,,,,,,,,,,,,,,,,,,,,,,,,,,,,,,,,,,,,,11_JH,11,24,F,2022-11-30_11h37.31.576,dynamic target,2022.1.3,120.08303165676838,
1,6,4,2,L,0,98,98,98,,,,,,,None,None,None,692.2553783166286,None,692.7299886211881,None,1,[0.00864507471919751],[0.5088878526373719],None,None,[3 3 1 2 0 3 1 3],space,0,1.0126043161678808,0.0026921729938749195,None,693.2378774603312,None,1,694.2536525729329,None,None,694.7532284011037,None,,,,,,,,,,,,,,,,,,,,,,,,,,,,,,,,,,,,,,,,,,,,,,11_JH,11,24,F,2022-11-30_11h37.31.576,dynamic target,2022.1.3,120.08303165676838,
1,1,1,0,L,0,99,99,99,,,,,,,None,695.7856739219956,None,694.7949004450179,None,695.2860959771347,None,1,[0.009291947983456339],[0.5176576837768607],695.7856739219956,None,[1 1 1 1 1 0 1 0],space,0,2.4476161632171625,0.0023355428158993163,None,695.8023213674073,None,1,698.250217762492,None,None,698.7497826865027,None,,,,,,,,,,,,,,,,,,,,,,,,,,,,,,,,,,,,,,,,,,,,,,11_JH,11,24,F,2022-11-30_11h37.31.576,dynamic target,2022.1.3,120.08303165676838,
1,8,1,2,L,0,100,100,100,,,,,,,None,699.7822131339967,None,698.7997354779036,None,699.282649300402,None,1,[0.008631925584722921],[0.5171621859119568],699.7822131339967,None,[0 0 3 0 0 2 3 0],space,0,1.6680838490594851,0.0025414390158857714,None,699.7988734078322,None,1,701.4641083155125,None,None,701.9636690702856,None,,,,,,,,,,,,,,,,,,,,,,,,,,,,,,,,,,,,,,,,,,,,,,11_JH,11,24,F,2022-11-30_11h37.31.576,dynamic target,2022.1.3,120.08303165676838,
1,7,1,2,L,0,101,101,101,,,,,,,None,702.9877806057325,None,702.0052958940064,703.0044123363252,702.4798943322742,None,2,"[0.00924095499908617, 0.49983868257208997]","[0.059292332835866546, 1.0006523253441628]",702.9877806057325,None,[0 0 2 2 3 2 0 0],space,0,5.346377129915936,0.0024481122336510452,None,703.4790104538824,None,1,708.8243856147187,None,None,709.3239678571016,None,,,,,,,,,,,,,,,,,,,,,,,,,,,,,,,,,,,,,,,,,,,,,,11_JH,11,24,F,2022-11-30_11h37.31.576,dynamic target,2022.1.3,120.08303165676838,
1,6,1,2,L,0,102,102,102,,,,,,,None,710.3397822888217,None,709.3739347597684,None,709.8401863841677,None,1,[0.00871242394350702],[0.5171237006411502],710.3397822888217,None,[3 3 1 1 1 1 3 2],space,0,1.1576392672081965,0.0029631734441863955,None,710.3564156229675,None,1,711.5137434110009,None,None,712.0133202013036,None,,,,,,,,,,,,,,,,,,,,,,,,,,,,,,,,,,,,,,,,,,,,,,11_JH,11,24,F,2022-11-30_11h37.31.576,dynamic target,2022.1.3,120.08303165676838,
1,5,4,2,L,0,103,103,103,,,,,,,None,713.0457580251411,None,712.0716233343896,713.0707304761013,712.5461839288073,None,1,[0.2412276031757301],[0.7412667298679025],713.0457580251411,None,[1 3 1 1 2 1 3 0],space,0,4.0022928292125926,0.0030035829784083035,None,713.2871963351758,None,1,717.2920817196245,None,None,717.7916312495269,None,,,,,,,,,,,,,,,,,,,,,,,,,,,,,,,,,,,,,,,,,,,,,,11_JH,11,24,F,2022-11-30_11h37.31.576,dynamic target,2022.1.3,120.08303165676838,
1,8,1,0,L,0,104,104,104,,,,,,,None,718.8240738840234,None,717.8332622424855,None,718.3245126161132,None,1,[0.00929964503757219],[0.51732222049759],718.8240738840234,None,[2 0 0 3 3 2 2 2],space,0,3.728326447379686,0.002075446525168445,None,718.840720688014,None,1,722.570840800545,None,None,723.0704163080053,None,,,,,,,,,,,,,,,,,,,,,,,,,,,,,,,,,,,,,,,,,,,,,,11_JH,11,24,F,2022-11-30_11h37.31.576,dynamic target,2022.1.3,120.08303165676838,
1,7,1,2,L,0,105,105,105,,,,,,,None,724.0945294470052,None,723.1037335202861,724.1028518868686,723.5949572749348,None,2,"[0.008628718479030795, 0.7252574985343472]","[0.15009865057822935, 1.2330270333372937]",724.0945294470052,None,[0 3 1 1 3 2 1 3],space,0,1.8220980552557648,0.0030096764799054654,None,724.8272338454867,None,1,726.6506653461943,None,None,727.1502386086805,None,,,,,,,,,,,,,,,,,,,,,,,,,,,,,,,,,,,,,,,,,,,,,,11_JH,11,24,F,2022-11-30_11h37.31.576,dynamic target,2022.1.3,120.08303165676838,
1,6,2,2,L,0,106,106,106,,,,,,,None,728.1826642455155,None,727.200186910133,None,727.6830994497889,None,1,[0.024864050780024627],[0.5248897076273806],728.1826642455155,None,[0 0 2 2 2 2 2 1],space,0,1.194225290127406,0.0027996110418371245,None,728.2076440728192,None,1,729.4066116412814,None,None,729.9061695096592,None,,,,,,,,,,,,,,,,,,,,,,,,,,,,,,,,,,,,,,,,,,,,,,11_JH,11,24,F,2022-11-30_11h37.31.576,dynamic target,2022.1.3,120.08303165676838,
1,5,3,2,L,0,107,107,107,,,,,,,None,730.938607012786,None,729.9561335259307,None,730.4390473484289,None,1,[0.00864507471919751],[0.517116003586807],730.938607012786,None,[3 2 1 1 0 2 3 3],space,0,1.1978672796110459,0.002913784012889664,None,730.9552611931206,None,1,732.1542124053424,None,None,732.653804269043,None,,,,,,,,,,,,,,,,,,,,,,,,,,,,,,,,,,,,,,,,,,,,,,11_JH,11,24,F,2022-11-30_11h37.31.576,dynamic target,2022.1.3,120.08303165676838,
1,6,1,1,L,0,108,108,108,,,,,,,None,733.6862173981647,None,732.7121231169479,None,733.1866865977611,None,1,[0.008627756347323157],[0.5172917529912411],733.6862173981647,None,[3 1 1 0 2 3 2 2],space,0,1.2330463451628475,0.0019971931405962096,None,733.7029023667158,None,1,734.9351439798131,None,None,735.4347182044311,None,,,,,,,,,,,,,,,,,,,,,,,,,,,,,,,,,,,,,,,,,,,,,,11_JH,11,24,F,2022-11-30_11h37.31.576,dynamic target,2022.1.3,120.08303165676838,
1,5,2,2,L,0,109,109,109,,,,,,,None,736.4671675738502,None,735.4846825414136,736.4838284891068,735.9676178515213,None,1,[0.0589587938202385],[0.5666568101614757],736.4671675738502,None,[2 3 1 3 3 0 2 3],space,0,1.5221679060225597,0.002723602631704125,None,736.5337637697091,None,1,738.057459151092,None,None,738.5570266407875,None,,,,,,,,,,,,,,,,,,,,,,,,,,,,,,,,,,,,,,,,,,,,,,11_JH,11,24,F,2022-11-30_11h37.31.576,dynamic target,2022.1.3,120.08303165676838,
1,7,2,0,L,0,110,110,110,,,,,,,None,739.5811365726815,None,738.5903406459622,None,739.0815740219289,None,1,[0.007969978923028975],[0.5164726581392642],739.5811365726815,None,[3 2 2 2 0 0 0 0],space,0,1.5150503758534342,0.0029641355758940335,None,739.5977946015425,None,1,741.1131434897673,None,None,741.6127183558064,None,,,,,,,,,,,,,,,,,,,,,,,,,,,,,,,,,,,,,,,,,,,,,,11_JH,11,24,F,2022-11-30_11h37.31.576,dynamic target,2022.1.3,120.08303165676838,
1,6,3,2,L,0,111,111,111,,,,,,,None,742.6451526518274,None,741.6626778821299,742.661818377743,742.1455926667597,None,1,[0.09146986795713019],[0.5918505514300705],742.6451526518274,None,[3 1 2 3 2 2 2 3],space,0,1.0795029421158233,0.002600129053917044,None,742.7367658774194,None,1,743.8191464864874,None,None,744.318719107552,None,,,,,,,,,,,,,,,,,,,,,,,,,,,,,,,,,,,,,,,,,,,,,,11_JH,11,24,F,2022-11-30_11h37.31.576,dynamic target,2022.1.3,120.08303165676838,
1,7,2,1,L,0,112,112,112,,,,,,,None,745.3511405751494,None,744.3770418039842,None,744.8515902113998,None,1,[0.008626152794477093],[0.517347877344946],745.3511405751494,None,[0 3 2 3 3 3 0 0],space,0,4.735458730235905,0.00266715756697522,None,745.3677848134555,None,1,750.1053871040988,None,None,750.6049414446601,None,,,,,,,,,,,,,,,,,,,,,,,,,,,,,,,,,,,,,,,,,,,,,,11_JH,11,24,F,2022-11-30_11h37.31.576,dynamic target,2022.1.3,120.08303165676838,
1,6,4,2,L,0,113,113,113,,,,,,,None,751.6373853619987,None,750.6549083473271,None,751.1378180005875,None,1,[0.009340375282590685],[0.5173125991796041],751.6373853619987,None,[3 3 3 0 1 2 1 1],space,0,1.409045583154466,0.002727130448420212,None,751.654023827514,None,1,753.0611550199544,None,None,753.5607135297536,None,,,,,,,,,,,,,,,,,,,,,,,,,,,,,,,,,,,,,,,,,,,,,,11_JH,11,24,F,2022-11-30_11h37.31.576,dynamic target,2022.1.3,120.08303165676838,
1,5,1,2,L,0,114,114,114,,,,,,,None,754.5931628991723,None,753.6190676558238,754.6181497821092,754.0936160632389,None,2,"[0.008625832083453133, 0.5755392107184889]","[0.06720265958892924, 1.0832866164901134]",754.5931628991723,None,[1 2 2 3 2 3 3 1],space,0,1.8709862157754742,0.0028268714422665653,None,755.1759706947489,None,1,757.0493682642757,None,None,757.5489549966068,None,,,,,,,,,,,,,,,,,,,,,,,,,,,,,,,,,,,,,,,,,,,,,,11_JH,11,24,F,2022-11-30_11h37.31.576,dynamic target,2022.1.3,120.08303165676838,
1,4,2,2,L,0,115,115,115,,,,,,,None,758.581382878416,None,757.6072885971992,None,758.0818132720308,None,1,[0.008657903142648138],[0.5175053462453434],758.581382878416,None,[2 2 1 3 1 3 1 2],space,0,1.8559779221993722,0.002540156173381547,None,758.5980457179364,None,0,760.4631246961269,None,None,760.962646644918,None,,,,,,,,,,,,,,,,,,,,,,,,,,,,,,,,,,,,,,,,,,,,,,11_JH,11,24,F,2022-11-30_11h37.31.576,dynamic target,2022.1.3,120.08303165676838,
1,3,3,2,L,0,116,116,116,,,,,,,None,761.9950892794147,None,761.0126353559056,None,761.4955196730291,None,1,[0.009082203255729837],[0.5175839203402575],761.9950892794147,None,[2 3 1 0 0 3 0 0],space,0,2.1074358725506954,0.002456771419474535,None,762.0117521189347,None,1,764.1182475988396,None,None,764.6178198991942,None,,,,,,,,,,,,,,,,,,,,,,,,,,,,,,,,,,,,,,,,,,,,,,11_JH,11,24,F,2022-11-30_11h37.31.576,dynamic target,2022.1.3,120.08303165676838,
1,2,2,2,L,0,117,117,117,,,,,,,None,765.6419437499279,None,764.651125245183,None,765.1423682424677,None,1,[0.008661430958909477],[0.5088894561899906],765.6419437499279,None,[2 3 0 2 0 1 1 0],space,0,2.3084271248487767,0.0027614464815997053,None,765.6502727964296,None,1,767.9566171575036,None,None,768.4561827229353,None,,,,,,,,,,,,,,,,,,,,,,,,,,,,,,,,,,,,,,,,,,,,,,11_JH,11,24,F,2022-11-30_11h37.31.576,dynamic target,2022.1.3,120.08303165676838,
1,3,2,1,L,0,118,118,118,,,,,,,None,769.4886186225096,None,768.5061303829668,769.5052811413191,768.9890486954134,None,1,[0.09138808675606924],[0.5918434957966383],769.4886186225096,None,[1 1 1 2 0 2 2 0],space,0,2.537862840976004,0.0023781973245604604,None,769.5802026634371,None,1,772.1196612911297,None,None,772.6192448163546,None,,,,,,,,,,,,,,,,,,,,,,,,,,,,,,,,,,,,,,,,,,,,,,11_JH,11,24,F,2022-11-30_11h37.31.576,dynamic target,2022.1.3,120.08303165676838,
1,2,1,2,L,0,119,119,119,,,,,,,None,773.6433457683522,None,772.660930009403,None,773.1437928389175,None,1,[0.007833676921109145],[0.5165679091846869],773.6433457683522,None,[3 0 2 3 1 0 3 1],space,0,3.0021962953244383,0.002594035553102003,None,773.6600021936604,None,1,776.6657509310228,None,space,777.1736320731118,None,24.836362300258543,,,,,,,,,,,,,,,,,,,,,,,,,,,,,,,,,,,,,,,,,,,,,11_JH,11,24,F,2022-11-30_11h37.31.576,dynamic target,2022.1.3,120.08303165676838,
1,1,2,2,L,0,120,120,120,,,,,,,None,803.0512835479315,None,802.0771148618571,None,802.5517043202283,None,1,[0.00878298027373603],[0.5171772593098467],803.0512835479315,None,[0 3 3 0 1 3 2 1],space,0,2.4083172493999427,0.0028878064549644478,None,803.0679168820773,None,1,805.4741779866815,None,None,805.9737169331346,None,,,,,,,,,,,,,,,,,,,,,,,,,,,,,,,,,,,,,,,,,,,,,,11_JH,11,24,F,2022-11-30_11h37.31.576,dynamic target,2022.1.3,120.08303165676838,
1,8,4,2,L,0,121,121,121,,,,,,,None,807.006188431584,None,806.0320377053029,807.0311586375699,806.5066111281442,None,2,"[0.008666562328926375, 0.2666663673367111]","[0.04173888000195802, 0.7759114915738792]",807.006188431584,None,[3 2 3 0 3 1 3 3],space,0,4.130344871561874,0.0021001412410441844,None,807.2809431200524,None,1,811.4106897971699,None,None,811.9102720395525,None,,,,,,,,,,,,,,,,,,,,,,,,,,,,,,,,,,,,,,,,,,,,,,11_JH,11,24,F,2022-11-30_11h37.31.576,dynamic target,2022.1.3,120.08303165676838,
1,7,3,2,L,0,122,122,122,,,,,,,None,812.9427137119171,None,811.9685671548739,812.9676768622701,812.4431418605575,None,1,[0.06681363764073467],[0.5670679611398555],812.9427137119171,None,[1 3 1 2 3 3 3 3],space,0,1.3947354765375621,0.0025606816511754005,None,813.0093073420919,None,1,814.4081026248239,None,None,814.9076543997002,None,,,,,,,,,,,,,,,,,,,,,,,,,,,,,,,,,,,,,,,,,,,,,,11_JH,11,24,F,2022-11-30_11h37.31.576,dynamic target,2022.1.3,120.08303165676838,
1,6,1,2,L,0,123,123,123,,,,,,,None,815.9401214082015,None,814.9660069222175,None,815.4405389733927,None,1,[0.008621342135029408],[0.5172449292449528],815.9401214082015,None,[0 3 3 2 3 2 1 1],space,0,1.5672049737529505,0.002766898561731068,None,815.9567868134066,None,1,817.5220786792881,None,None,818.0216519417744,None,,,,,,,,,,,,,,,,,,,,,,,,,,,,,,,,,,,,,,,,,,,,,,11_JH,11,24,F,2022-11-30_11h37.31.576,dynamic target,2022.1.3,120.08303165676838,
1,5,3,2,L,0,124,124,124,,,,,,,None,819.0541016319037,None,818.0716105059657,819.0707240618892,818.5545458160739,None,1,[0.06644963111875768],[0.5758086076157269],819.0541016319037,None,[0 1 3 0 0 1 0 1],space,0,1.2419681931226023,0.002095009871027287,None,819.1290472073163,None,1,820.3696337100184,None,None,820.8691861263163,None,,,,,,,,,,,,,,,,,,,,,,,,,,,,,,,,,,,,,,,,,,,,,,11_JH,11,24,F,2022-11-30_11h37.31.576,dynamic target,2022.1.3,120.08303165676838,
1,4,3,2,L,0,125,125,125,,,,,,,None,821.9016245915752,None,820.9191472561927,None,821.4020562680319,None,1,[0.007577749868687533],[0.51656662634241],821.9016245915752,None,[3 3 1 2 3 1 2 3],space,0,2.340510371055416,0.0024452258376186364,None,821.9183028252039,None,1,824.2579664511065,None,None,824.7574906448721,None,,,,,,,,,,,,,,,,,,,,,,,,,,,,,,,,,,,,,,,,,,,,,,11_JH,11,24,F,2022-11-30_11h37.31.576,dynamic target,2022.1.3,120.08303165676838,
1,3,2,2,L,0,126,126,126,,,,,,,None,825.7899284687094,None,824.8158085306452,825.8149147102251,825.2820396295663,None,1,[0.8253018848804459],[1.3328376216613833],825.7899284687094,None,[0 2 1 1 0 2 1 3],space,0,1.5969714066429788,0.0031944057809596416,None,826.6142258880157,None,1,828.21284471578,None,None,828.7123945663928,None,,,,,,,,,,,,,,,,,,,,,,,,,,,,,,,,,,,,,,,,,,,,,,11_JH,11,24,F,2022-11-30_11h37.31.576,dynamic target,2022.1.3,120.08303165676838,
1,2,4,2,L,0,127,127,127,,,,,,,None,829.744846180786,None,828.770705396533,829.7698474956994,829.2452826679016,None,1,[0.12475994812166391],[0.6250774516079218],829.744846180786,None,[3 2 3 2 3 1 1 3],space,0,1.6692008840516337,0.00266234690843703,None,829.8697209432996,None,1,831.5432831015025,None,None,832.0428586089628,None,,,,,,,,,,,,,,,,,,,,,,,,,,,,,,,,,,,,,,,,,,,,,,11_JH,11,24,F,2022-11-30_11h37.31.576,dynamic target,2022.1.3,120.08303165676838,
1,1,1,2,L,0,128,128,128,,,,,,,None,833.075293546405,None,832.1011594970744,833.1002765808146,832.5757412583914,None,1,[0.27471427893351574],[0.7752322265396288],833.075293546405,None,[3 0 3 3 3 2 0 2],space,0,1.1484784898573253,0.0025699822581373155,None,833.3500578561909,None,1,834.4990744292315,None,None,834.998626845529,None,,,,,,,,,,,,,,,,,,,,,,,,,,,,,,,,,,,,,,,,,,,,,,11_JH,11,24,F,2022-11-30_11h37.31.576,dynamic target,2022.1.3,120.08303165676838,
1,8,2,2,L,0,129,129,129,,,,,,,None,836.0310656314984,None,835.0486001624079,None,835.5315143056166,None,1,[0.008644112587717245],[0.5170605206544678],836.0310656314984,None,[0 3 2 3 3 2 2 0],space,0,1.075475137789681,0.0029705497877330345,None,836.0477220568066,None,1,837.121809410675,None,None,837.6213733725539,None,,,,,,,,,,,,,,,,,,,,,,,,,,,,,,,,,,,,,,,,,,,,,,11_JH,11,24,F,2022-11-30_11h37.31.576,dynamic target,2022.1.3,120.08303165676838,
1,7,3,2,L,0,130,130,130,,,,,,,None,838.6454977364244,None,837.6630576034706,None,838.1459156223261,None,1,[0.008688049938427866],[0.5172199138182805],838.6454977364244,None,[0 3 2 1 1 0 2 3],space,0,0.9883454462749341,0.0026892865985246317,None,838.6621329948341,None,1,839.6529449570824,None,None,840.152522709517,None,,,,,,,,,,,,,,,,,,,,,,,,,,,,,,,,,,,,,,,,,,,,,,11_JH,11,24,F,2022-11-30_11h37.31.576,dynamic target,2022.1.3,120.08303165676838,
1,6,4,2,L,0,131,131,131,,,,,,,None,841.1849496291945,None,840.2024831979722,841.2016188829264,840.6853774571243,None,3,"[0.6253013076011484, 0.6588142816272011, 1.5997416355467067]","[0.6427967118183915, 0.9166559763134501, 2.1073767926118308]",841.1849496291945,None,[0 1 1 1 2 3 0 3],space,0,0.8099517830034983,0.002671006094715267,None,842.7918947453493,None,1,843.5995306079774,None,None,844.0990849485387,None,,,,,,,,,,,,,,,,,,,,,,,,,,,,,,,,,,,,,,,,,,,,,,11_JH,11,24,F,2022-11-30_11h37.31.576,dynamic target,2022.1.3,120.08303165676838,
1,5,4,2,L,0,132,132,132,,,,,,,None,845.131542015012,None,844.1573980236528,None,844.6319807471016,None,1,[0.008669448724049289],[0.5176599287510726],845.131542015012,None,[3 0 2 1 1 3 2 0],space,0,1.5572837915881337,0.001968649898572039,None,845.1481936296611,None,1,846.7051883918159,None,None,847.2047392045605,None,,,,,,,,,,,,,,,,,,,,,,,,,,,,,,,,,,,,,,,,,,,,,,11_JH,11,24,F,2022-11-30_11h37.31.576,dynamic target,2022.1.3,120.08303165676838,
1,4,2,2,L,0,133,133,133,,,,,,,None,848.2288664548266,None,847.2380596239475,848.2371872911374,847.7293061490484,None,8,"[0.009187075619593088, 0.3004006316714367, 0.3249564795723927, 0.3416773677099627, 0.5419431726486437, 0.6507019072014373, 0.6752349846506149, 0.7006737488118233]","[0.2916503638780341, 0.308342067351532, 0.3332981620715145, 0.3506829211346485, 0.5506761220699445, 0.6590256299077737, 0.6916309929583804, 1.208415381793202]",848.2288664548266,None,[0 3 0 2 0 1 0 0],space,0,1.0330916294985855,0.0025347040923406894,None,848.9365778768704,None,1,849.969018073966,None,None,850.4686051270077,None,,,,,,,,,,,,,,,,,,,,,,,,,,,,,,,,,,,,,,,,,,,,,,11_JH,11,24,F,2022-11-30_11h37.31.576,dynamic target,2022.1.3,120.08303165676838,
1,3,3,2,L,0,134,134,134,,,,,,,None,851.5010391023181,None,850.5185489385119,None,851.0014746273021,None,1,[0.00807645483973829],[0.5170130554870411],851.5010391023181,None,[1 1 0 3 1 1 1 0],space,0,1.0440070144989022,0.0024263039131255937,None,851.5176948862056,None,1,852.5584616924027,None,None,853.0580298235194,None,,,,,,,,,,,,,,,,,,,,,,,,,,,,,,,,,,,,,,,,,,,,,,11_JH,11,24,F,2022-11-30_11h37.31.576,dynamic target,2022.1.3,120.08303165676838,
1,2,4,2,L,0,135,135,135,,,,,,,None,854.0904689301994,None,853.1079819734989,854.1071099613994,853.5908778362043,None,2,"[0.008593761024712876, 0.35825361537081335]","[0.06685180220119946, 0.858440589645852]",854.0904689301994,None,[1 3 3 0 3 3 0 3],space,0,0.9770436050114313,0.0029259710149744933,None,854.4484746362821,None,1,855.4226433223564,None,None,855.9222034357084,None,,,,,,,,,,,,,,,,,,,,,,,,,,,,,,,,,,,,,,,,,,,,,,11_JH,11,24,F,2022-11-30_11h37.31.576,dynamic target,2022.1.3,120.08303165676838,
1,1,2,2,L,0,136,136,136,,,,,,,None,856.9546566536544,None,855.9805463369078,856.9796281424826,856.4550694081865,None,4,"[0.40788133451496833, 0.4244838804443134, 0.44174837303489767, 0.45779159969151806]","[0.4162512395464546, 0.4328467298423675, 0.44948198825159125, 0.9580860120149737]",856.9546566536544,None,[1 3 1 0 1 1 0 0],space,0,0.9884243410804174,0.002755673691353877,None,857.4125954595077,None,1,858.403388820542,None,None,858.9029717043458,None,,,,,,,,,,,,,,,,,,,,,,,,,,,,,,,,,,,,,,,,,,,,,,11_JH,11,24,F,2022-11-30_11h37.31.576,dynamic target,2022.1.3,120.08303165676838,
1,8,4,2,L,0,137,137,137,,,,,,,None,859.9354106185996,None,858.9445972452243,None,859.4358303004803,None,1,[0.008728138762307935],[0.5090084398198087],859.9354106185996,None,[1 3 2 0 1 1 1 0],space,0,0.8093379429299148,0.0025876213412630023,None,859.9437415893647,None,1,860.7513687928069,None,None,861.2509404517399,None,,,,,,,,,,,,,,,,,,,,,,,,,,,,,,,,,,,,,,,,,,,,,,11_JH,11,24,F,2022-11-30_11h37.31.576,dynamic target,2022.1.3,120.08303165676838,
1,7,3,2,L,0,138,138,138,,,,,,,None,862.283382124105,None,861.3092884843088,None,861.7838170076677,None,1,[0.008688691359566292],[0.517495404217243],862.283382124105,None,[0 1 0 2 2 3 3 0],space,0,0.932575157160727,0.0024923702953856264,None,862.3000186653564,None,1,863.2325543059244,None,None,863.7321214749094,None,,,,,,,,,,,,,,,,,,,,,,,,,,,,,,,,,,,,,,,,,,,,,,11_JH,11,24,F,2022-11-30_11h37.31.576,dynamic target,2022.1.3,120.08303165676838,
1,8,3,1,L,0,139,139,139,,,,,,,None,864.7645708443285,None,863.7737627306071,864.772904188352,864.2649993136795,None,1,[0.27457476982635853],[0.7746664930555198],864.7645708443285,None,[0 2 1 3 1 0 2 3],space,0,3.0581397681582985,0.0029994137403264176,None,865.0393191185847,None,1,868.0950095507612,None,None,868.5946087908054,None,,,,,,,,,,,,,,,,,,,,,,,,,,,,,,,,,,,,,,,,,,,,,,11_JH,11,24,F,2022-11-30_11h37.31.576,dynamic target,2022.1.3,120.08303165676838,
1,1,4,1,L,0,140,140,140,,,,,,,None,869.6186930658521,None,868.6278897627897,None,869.1191401364174,None,1,[0.0078048129680610145],[0.516592283189766],869.6186930658521,None,[2 3 1 2 2 0 2 2],space,0,0.6692656675911621,0.002429831728932186,None,869.6353745065869,None,1,870.3014493553076,None,None,870.8009969609465,None,,,,,,,,,,,,,,,,,,,,,,,,,,,,,,,,,,,,,,,,,,,,,,11_JH,11,24,F,2022-11-30_11h37.31.576,dynamic target,2022.1.3,120.08303165676838,
1,8,4,2,L,0,141,141,141,,,,,,,None,871.8334402368639,None,870.8593674432566,None,871.3338911559565,None,1,[0.00863064274244607],[0.5170755940521303],871.8334402368639,None,[2 0 3 3 3 3 2 2],space,0,3.206416141152431,0.00291538756528098,None,871.850120715467,None,1,875.0556724723835,None,None,875.5552313028933,None,,,,,,,,,,,,,,,,,,,,,,,,,,,,,,,,,,,,,,,,,,,,,,11_JH,11,24,F,2022-11-30_11h37.31.576,dynamic target,2022.1.3,120.08303165676838,
1,7,1,2,L,0,142,142,142,,,,,,,None,876.579361118844,None,875.5885459494896,None,876.079787663931,None,1,[0.009380143396356289],[0.5175585842039254],876.579361118844,None,[0 1 2 3 0 2 1 2],space,0,2.87605312241908,0.0025154614577331813,None,876.5960172234415,None,0,879.4851959990713,None,None,879.984728531312,None,,,,,,,,,,,,,,,,,,,,,,,,,,,,,,,,,,,,,,,,,,,,,,11_JH,11,24,F,2022-11-30_11h37.31.576,dynamic target,2022.1.3,120.08303165676838,
1,7,4,0,L,0,143,143,143,,,,,,,None,881.0255086790701,None,880.0430550762715,881.0421625386937,880.5259345827365,None,1,[0.36658567655149454],[0.8668265302062537],881.0255086790701,None,[1 2 3 1 0 0 1 1],space,0,1.360806220162658,0.0027511837429301522,None,881.3918624818637,None,1,882.7656641467368,None,None,883.2652149594813,None,,,,,,,,,,,,,,,,,,,,,,,,,,,,,,,,,,,,,,,,,,,,,,11_JH,11,24,F,2022-11-30_11h37.31.576,dynamic target,2022.1.3,120.08303165676838,
1,6,2,2,L,0,144,144,144,,,,,,,None,884.297673950218,None,883.3151834657012,884.3143348654746,883.798112040887,None,1,[0.2745298703434855],[0.7746530232107034],884.297673950218,None,[1 1 3 1 3 3 0 1],space,0,1.5400709334023759,0.0030638765692856396,None,884.5724344114767,None,1,886.1127801246664,None,None,886.6123460108091,None,,,,,,,,,,,,,,,,,,,,,,,,,,,,,,,,,,,,,,,,,,,,,,11_JH,11,24,F,2022-11-30_11h37.31.576,dynamic target,2022.1.3,120.08303165676838,
1,5,2,2,L,0,145,145,145,,,,,,,None,887.6447934559644,None,886.670691798404,None,887.145215190393,None,1,[0.008647961114547797],[0.5169129937817161],887.6447934559644,None,[3 1 2 0 2 2 3 1],space,0,0.8986263374397367,0.0029532314151765604,None,887.6614341664538,None,1,888.5606473350874,None,None,889.0602331052868,None,,,,,,,,,,,,,,,,,,,,,,,,,,,,,,,,,,,,,,,,,,,,,,11_JH,11,24,F,2022-11-30_11h37.31.576,dynamic target,2022.1.3,120.08303165676838,
1,4,2,2,L,0,146,146,146,,,,,,,None,890.0926674013078,None,889.1185570845612,None,889.5930920221315,None,1,[0.008640905481570371],[0.5169681560041681],890.0926674013078,None,[3 1 0 0 3 0 1 0],space,0,0.8985214650763282,0.0030298812475848536,None,890.109321581642,None,1,891.0085466165672,None,None,891.508089090837,None,,,,,,,,,,,,,,,,,,,,,,,,,,,,,,,,,,,,,,,,,,,,,,11_JH,11,24,F,2022-11-30_11h37.31.576,dynamic target,2022.1.3,120.08303165676838,
1,3,1,2,L,0,147,147,147,,,,,,,None,892.5322339801853,None,891.5497377228778,None,892.0326826543035,None,1,[0.008616210765922006],[0.517269303250032],892.5322339801853,None,[1 2 1 0 3 1 2 2],space,0,0.8748908672334892,0.0028117980446040747,None,892.5488673143311,None,1,893.4231141255057,None,None,893.9226835394646,None,,,,,,,,,,,,,,,,,,,,,,,,,,,,,,,,,,,,,,,,,,,,,,11_JH,11,24,F,2022-11-30_11h37.31.576,dynamic target,2022.1.3,120.08303165676838,
1,1,3,0,L,0,148,148,148,,,,,,,None,894.9551445827491,None,893.9643244744514,None,894.4472488803992,None,1,[0.008751871346248663],[0.5165291032035384],894.9551445827491,None,[0 0 3 1 0 0 0 2],space,0,2.460735792116566,0.003409602588362759,None,894.9634656114861,None,1,897.4280065655873,None,None,897.9275605854381,None,,,,,,,,,,,,,,,,,,,,,,,,,,,,,,,,,,,,,,,,,,,,,,11_JH,11,24,F,2022-11-30_11h37.31.576,dynamic target,2022.1.3,120.08303165676838,
1,2,1,1,L,0,149,149,149,,,,,,,None,898.9683288669037,None,897.9775213946034,898.9766535517417,898.4687464320948,None,1,[0.4495387540264346],[0.9496519648655521],898.9683288669037,None,[0 1 3 0 0 0 2 2],space,0,2.708976694518924,0.002785179065540433,None,899.4179272731005,None,1,902.1239376461638,None,None,902.6234900624617,None,,,,,,,,,,,,,,,,,,,,,,,,,,,,,,,,,,,,,,,,,,,,,,11_JH,11,24,F,2022-11-30_11h37.31.576,dynamic target,2022.1.3,120.08303165676838,
1,1,4,2,L,0,150,150,150,,,,,,,None,903.6642695687981,None,902.690109221199,903.6892789014762,903.1646906618055,None,1,[0.1251880967620309],[0.6335288171294451],903.6642695687981,None,[1 0 1 1 0 2 3 1],space,0,1.8490688539147868,0.0026411800099594984,None,903.7975078221314,None,1,905.6458873997938,None,None,906.1454706043086,None,,,,,,,,,,,,,,,,,,,,,,,,,,,,,,,,,,,,,,,,,,,,,,11_JH,11,24,F,2022-11-30_11h37.31.576,dynamic target,2022.1.3,120.08303165676838,
1,8,1,2,L,0,151,151,151,,,,,,,None,907.1778898269315,None,906.195398380283,907.1945395173177,906.678328238311,None,1,[0.3828710397051509],[0.8917114271748687],907.1778898269315,None,[0 1 2 2 1 3 3 0],space,0,2.6691441182767903,0.002593714842078043,None,907.5692587351944,None,1,910.2419152066852,None,None,910.7414801306958,None,,,,,,,,,,,,,,,,,,,,,,,,,,,,,,,,,,,,,,,,,,,,,,11_JH,11,24,F,2022-11-30_11h37.31.576,dynamic target,2022.1.3,120.08303165676838,
1,7,4,2,L,0,152,152,152,,,,,,,None,911.7739278965616,None,910.7831201035513,911.7822647684022,911.2743544416492,None,2,"[0.3249628937842317, 0.5428023563245006]","[0.5333128506167668, 1.0501058986374119]",911.7739278965616,None,[3 2 2 1 3 1 0 3],space,0,0.9071748782710074,0.0026155231621487474,None,912.3234388770509,None,1,913.2310014252378,None,None,913.7306061173621,None,,,,,,,,,,,,,,,,,,,,,,,,,,,,,,,,,,,,,,,,,,,,,,11_JH,11,24,F,2022-11-30_11h37.31.576,dynamic target,2022.1.3,120.08303165676838,
1,2,3,0,L,0,153,153,153,,,,,,,None,914.7630022488227,None,913.7888951391822,None,914.263428152489,None,1,[0.008578366916026425],[0.517264492591039],914.7630022488227,None,[0 2 0 1 2 0 2 2],space,0,2.8019792383959157,0.0027229612101109524,None,914.7796362243896,None,1,917.5855771315389,None,None,918.0851215300717,None,,,,,,,,,,,,,,,,,,,,,,,,,,,,,,,,,,,,,,,,,,,,,,11_JH,11,24,F,2022-11-30_11h37.31.576,dynamic target,2022.1.3,120.08303165676838,
1,7,2,0,L,0,154,154,154,,,,,,,None,919.1175731444648,None,918.1267563715571,919.1258943014857,918.6180032173686,None,3,"[0.008980537998468208, 0.033677498559882224, 0.3250770667550569]","[0.025214587456957815, 0.04219044051524179, 0.8250963093905739]",919.1175731444648,None,[1 0 3 0 3 1 0 1],space,0,2.5072683333376062,0.002915066855166515,None,919.4423086544396,None,1,921.9484512244087,None,None,922.4480318632385,None,,,,,,,,,,,,,,,,,,,,,,,,,,,,,,,,,,,,,,,,,,,,,,11_JH,11,24,F,2022-11-30_11h37.31.576,dynamic target,2022.1.3,120.08303165676838,
1,8,1,1,L,0,155,155,155,,,,,,,None,923.4804626314433,None,922.506337241299,None,922.9809036085073,None,1,[0.00873776008029381],[0.5172407600070983],923.4804626314433,None,[3 0 3 0 2 3 2 3],space,0,1.5723751492075735,0.0026674782784539275,None,923.4971203395942,None,1,925.0707561329484,None,None,925.5703223398017,None,,,,,,,,,,,,,,,,,,,,,,,,,,,,,,,,,,,,,,,,,,,,,,11_JH,11,24,F,2022-11-30_11h37.31.576,dynamic target,2022.1.3,120.08303165676838,
1,5,1,0,L,0,156,156,156,,,,,,,None,926.6027736334843,None,925.6286366977586,None,926.1031895951221,None,1,[0.00863449126973137],[0.5170313359908505],926.6027736334843,None,[3 3 1 3 2 2 3 1],space,0,2.4021134237070783,0.0028467554993767408,None,926.61942332387,None,1,929.0256587716269,None,None,929.525243258984,None,,,,,,,,,,,,,,,,,,,,,,,,,,,,,,,,,,,,,,,,,,,,,,11_JH,11,24,F,2022-11-30_11h37.31.576,dynamic target,2022.1.3,120.08303165676838,
1,6,1,1,L,0,157,157,157,,,,,,,None,930.5576865349014,None,929.5751822598293,930.5743108891509,930.0581137214101,None,2,"[0.009019023269502213, 0.3665693203115552]","[0.09183547803195324, 0.8669702085517201]",930.5576865349014,None,[1 3 1 3 3 3 2 2],space,0,1.4088711165920813,0.002513216482839198,None,930.9240284714035,None,1,932.3311330448648,None,None,932.8307047037982,None,,,,,,,,,,,,,,,,,,,,,,,,,,,,,,,,,,,,,,,,,,,,,,11_JH,11,24,F,2022-11-30_11h37.31.576,dynamic target,2022.1.3,120.08303165676838,
1,5,2,2,L,0,158,158,158,,,,,,,None,933.8631476590051,None,932.8890520949456,None,933.3635960124127,None,1,[0.00867458009361144],[0.517270906802878],933.8631476590051,None,[3 0 2 0 3 0 1 0],space,0,2.5017232472011983,0.0026966629416165233,None,933.8798169127374,None,1,936.3859780839209,None,None,936.8855183132163,None,,,,,,,,,,,,,,,,,,,,,,,,,,,,,,,,,,,,,,,,,,,,,,11_JH,11,24,F,2022-11-30_11h37.31.576,dynamic target,2022.1.3,120.08303165676838,
1,4,2,2,L,0,159,159,159,,,,,,,None,937.9096561469316,None,936.9188393740244,None,937.4101157252101,None,1,[0.009269498241792462],[0.5176191985055993],937.9096561469316,None,[0 0 2 3 2 3 1 1],space,0,3.1261053982454996,0.0023454848433175357,None,937.9262917260514,None,1,941.0569357514057,None,None,941.5564981097317,None,,,,,,,,,,,,,,,,,,,,,,,,,,,,,,,,,,,,,,,,,,,,,,11_JH,11,24,F,2022-11-30_11h37.31.576,dynamic target,2022.1.3,120.08303165676838,
1,3,3,2,L,0,160,160,160,,,,,,,None,942.5889801916312,None,941.6148557636182,942.6139394934569,942.0893974361113,None,1,[0.70900548928239],[1.2163250671246715],942.5889801916312,None,[3 2 1 3 0 3 0 0],space,0,3.267487455642595,0.0030228256146074273,None,943.3050095635897,None,1,946.5771536678387,None,None,947.0767282131673,None,,,,,,,,,,,,,,,,,,,,,,,,,,,,,,,,,,,,,,,,,,,,,,11_JH,11,24,F,2022-11-30_11h37.31.576,dynamic target,2022.1.3,120.08303165676838,
1,2,2,2,L,0,161,161,161,,,,,,,None,948.1091686026896,None,947.11836690318,None,947.6095797536684,None,1,[0.00863962263929352],[0.51760284226566],948.1091686026896,None,[2 0 0 1 0 2 2 1],space,0,0.7984838136528651,0.0025808864184000413,None,948.1258247072876,None,1,948.9251134353365,None,None,949.4246956777191,None,,,,,,,,,,,,,,,,,,,,,,,,,,,,,,,,,,,,,,,,,,,,,,11_JH,11,24,F,2022-11-30_11h37.31.576,dynamic target,2022.1.3,120.08303165676838,
1,1,1,2,L,0,162,162,162,,,,,,,None,950.4571408779004,None,949.4829907930405,None,949.9575901934397,None,1,[0.008636736244170606],[0.5173937389599814],950.4571408779004,None,[1 3 0 0 2 3 2 1],space,0,0.801907719933979,0.0026857587822632922,None,950.4737719670718,None,1,951.273137024242,None,None,951.7726525588213,None,,,,,,,,,,,,,,,,,,,,,,,,,,,,,,,,,,,,,,,,,,,,,,11_JH,11,24,F,2022-11-30_11h37.31.576,dynamic target,2022.1.3,120.08303165676838,
1,8,2,2,L,0,163,163,163,,,,,,,None,952.8051099460051,None,951.8226457597568,None,952.3055345668292,None,1,[0.008879193451775791],[0.5175136847210524],952.8051099460051,None,[0 0 3 2 3 3 0 2],space,0,0.7581589466515197,0.002427907465971657,None,952.821781765422,None,1,953.5794416172023,None,None,954.078993392079,None,,,,,,,,,,,,,,,,,,,,,,,,,,,,,,,,,,,,,,,,,,,,,,11_JH,11,24,F,2022-11-30_11h37.31.576,dynamic target,2022.1.3,120.08303165676838,
1,7,2,2,L,0,164,164,164,,,,,,,None,955.1114571934743,None,954.1373112778522,None,954.6118872663785,None,1,[0.00866207238050265],[0.5171182485605641],955.1114571934743,None,[1 2 1 0 2 1 2 3],space,0,0.6114271158687643,0.0027604843498920673,None,955.1280847548294,None,1,955.7442365099503,None,None,956.2438075274625,None,,,,,,,,,,,,,,,,,,,,,,,,,,,,,,,,,,,,,,,,,,,,,,11_JH,11,24,F,2022-11-30_11h37.31.576,dynamic target,2022.1.3,120.08303165676838,
1,6,3,2,L,0,165,165,165,,,,,,,None,957.2679248357001,None,956.2854285783926,None,956.7683484943921,None,1,[0.009426967142189824],[0.5176108600303451],957.2679248357001,None,[1 2 0 1 1 2 3 0],space,0,0.6633251452947206,0.0024853146619534527,None,957.2846181427265,None,1,957.9506538647549,None,None,958.4502309757685,None,,,,,,,,,,,,,,,,,,,,,,,,,,,,,,,,,,,,,,,,,,,,,,11_JH,11,24,F,2022-11-30_11h37.31.576,dynamic target,2022.1.3,120.08303165676838,
1,5,1,2,L,0,166,166,166,,,,,,,None,959.4826697617375,None,958.5085790083374,959.5076483061991,958.9830959861144,None,2,"[0.2334173381277651, 0.2589263379086333]","[0.2500291846640721, 0.7671028544527871]",959.4826697617375,None,[1 3 2 3 0 1 1 3],space,0,0.6620368508463343,0.0025417597262276104,None,959.7491151594766,None,1,960.4151973845408,None,None,960.9147514043915,None,,,,,,,,,,,,,,,,,,,,,,,,,,,,,,,,,,,,,,,,,,,,,,11_JH,11,24,F,2022-11-30_11h37.31.576,dynamic target,2022.1.3,120.08303165676838,
1,4,3,2,L,0,167,167,167,,,,,,,None,961.9472043016269,None,960.9730391433693,961.972175149034,961.4476295638722,None,1,[0.17508649564661027],[0.6751253016282135],961.9472043016269,None,[0 0 0 2 1 2 3 3],space,0,0.609130186608354,0.002914746144597302,None,962.1220736762027,None,1,962.7298208895484,None,None,963.2294015283782,None,,,,,,,,,,,,,,,,,,,,,,,,,,,,,,,,,,,,,,,,,,,,,,11_JH,11,24,F,2022-11-30_11h37.31.576,dynamic target,2022.1.3,120.08303165676838,
1,3,4,2,L,0,168,168,168,,,,,,,None,964.2535037632181,None,963.2710700444761,None,963.7539742456568,None,1,[0.008842632444157061],[0.5171201728248889],964.2535037632181,None,[3 0 1 2 2 3 3 0],space,0,0.6215057669344333,0.002764974298315792,None,964.2702028430351,None,1,964.8946754344668,None,None,965.3942086081287,None,,,,,,,,,,,,,,,,,,,,,,,,,,,,,,,,,,,,,,,,,,,,,,11_JH,11,24,F,2022-11-30_11h37.31.576,dynamic target,2022.1.3,120.08303165676838,
1,2,2,2,L,0,169,169,169,,,,,,,None,966.4266595811007,None,965.4442085439866,None,965.9270922196895,None,1,[0.008711141101230169],[0.5176066907924906],966.4266595811007,None,[0 0 1 0 2 3 1 1],space,0,0.895171322232045,0.001857684033439,None,966.4432970844844,None,1,967.342519553725,None,None,967.8421017961076,None,,,,,,,,,,,,,,,,,,,,,,,,,,,,,,,,,,,,,,,,,,,,,,11_JH,11,24,F,2022-11-30_11h37.31.576,dynamic target,2022.1.3,120.08303165676838,
1,1,3,2,L,0,170,170,170,,,,,,,None,968.8745540519219,None,967.9003831208731,968.8995261821713,968.3749754656399,None,3,"[0.558791382891286, 0.7666285234868155, 1.2002478451454408]","[0.6586407771974336, 0.9422999952535065, 1.7075805721219695]",968.8745540519219,None,[3 2 3 3 0 3 0 3],space,0,1.1780464028909137,0.003178370251589513,None,970.0818370046143,None,1,971.2641340365019,None,None,971.7636983190918,None,,,,,,,,,,,,,,,,,,,,,,,,,,,,,,,,,,,,,,,,,,,,,,11_JH,11,24,F,2022-11-30_11h37.31.576,dynamic target,2022.1.3,120.08303165676838,
1,1,4,0,L,0,171,171,171,,,,,,,None,972.7961560269857,None,971.81370402774,972.8128130937155,972.2965867413111,None,1,[0.03271344252016206],[0.5328288983332641],972.7961560269857,None,[3 3 1 3 0 3 2 0],space,0,0.8296841435997067,0.003042388959784148,None,972.8294480314141,None,1,973.6620685320052,None,None,974.1616680927599,None,,,,,,,,,,,,,,,,,,,,,,,,,,,,,,,,,,,,,,,,,,,,,,11_JH,11,24,F,2022-11-30_11h37.31.576,dynamic target,2022.1.3,120.08303165676838,
1,2,2,1,L,0,172,172,172,,,,,,,None,975.1940847496983,None,974.2115981137088,None,974.6945420830023,None,1,[0.008622945687875472],[0.5174335070728375],975.1940847496983,None,[1 2 3 3 1 3 3 0],space,0,2.99168853348624,0.002738676029821363,None,975.2107318743995,None,1,978.2081517576864,None,None,978.7076942319558,None,,,,,,,,,,,,,,,,,,,,,,,,,,,,,,,,,,,,,,,,,,,,,,11_JH,11,24,F,2022-11-30_11h37.31.576,dynamic target,2022.1.3,120.08303165676838,
1,3,3,1,L,0,173,173,173,,,,,,,None,979.7401580333515,None,978.7660477166048,979.765130805022,979.240584257728,None,1,[0.10023873696491137],[0.6003949230230319],979.7401580333515,None,[2 2 0 1 3 0 2 0],space,0,0.8106762682307362,0.0027919139879486465,None,979.8400536099828,None,1,980.6477006974812,None,None,981.1472733185464,None,,,,,,,,,,,,,,,,,,,,,,,,,,,,,,,,,,,,,,,,,,,,,,11_JH,11,24,F,2022-11-30_11h37.31.576,dynamic target,2022.1.3,120.08303165676838,
1,2,3,2,L,0,174,174,174,,,,,,,None,982.1797012003556,None,981.1972245063942,None,981.6801181241251,None,1,[0.008647319693409372],[0.5172686618284388],982.1797012003556,None,[1 2 2 3 1 0 2 1],space,0,3.0298165329325,0.002633482954934152,None,982.1963467215039,None,1,985.22706438201,None,None,985.7266405308914,None,,,,,,,,,,,,,,,,,,,,,,,,,,,,,,,,,,,,,,,,,,,,,,11_JH,11,24,F,2022-11-30_11h37.31.576,dynamic target,2022.1.3,120.08303165676838,
1,1,3,2,L,0,175,175,175,,,,,,,None,986.7507767610539,None,985.7683106505422,986.7674155472798,986.2511879120327,None,1,[0.5506966475481931],[1.0585021019373926],986.7507767610539,None,[0 2 3 2 3 3 3 1],space,0,1.88489864125836,0.002644707826220838,None,987.3086002393782,None,1,989.1986462164489,None,None,989.6981963877723,None,,,,,,,,,,,,,,,,,,,,,,,,,,,,,,,,,,,,,,,,,,,,,,11_JH,11,24,F,2022-11-30_11h37.31.576,dynamic target,2022.1.3,120.08303165676838,
1,2,3,1,L,0,176,176,176,,,,,,,None,990.7306470400338,None,989.7481616868865,990.7472819777324,990.2310819235965,None,1,[0.26628087320523264],[0.7662885702593485],990.7306470400338,None,[3 0 3 3 0 1 0 3],space,0,2.8686129573941344,0.0030491238821923616,None,990.9970853821394,None,1,993.8695833584554,None,None,994.3691864470269,None,,,,,,,,,,,,,,,,,,,,,,,,,,,,,,,,,,,,,,,,,,,,,,11_JH,11,24,F,2022-11-30_11h37.31.576,dynamic target,2022.1.3,120.08303165676838,
1,1,2,2,L,0,177,177,177,,,,,,,None,995.4016005382807,None,994.4274815623482,None,994.9020036714949,None,1,[0.008589591786403616],[0.5174033602770578],995.4016005382807,None,[3 3 2 2 1 0 0 0],space,0,2.5112746500533376,0.002568057994267292,None,995.418262415669,None,0,997.9410752015026,None,None,998.440651350384,None,,,,,,,,,,,,,,,,,,,,,,,,,,,,,,,,,,,,,,,,,,,,,,11_JH,11,24,F,2022-11-30_11h37.31.576,dynamic target,2022.1.3,120.08303165676838,
1,8,4,2,L,0,178,178,178,,,,,,,None,999.4647500574072,None,998.4989249780954,None,998.9652054664477,None,1,[0.009472828757225216],[0.5174835379252727],999.4647500574072,None,[3 2 2 1 0 0 0 0],space,0,3.167428958030314,0.0025270070391343324,None,999.4814154626122,None,1,1002.6536700837312,None,None,1003.1532151236851,None,,,,,,,,,,,,,,,,,,,,,,,,,,,,,,,,,,,,,,,,,,,,,,11_JH,11,24,F,2022-11-30_11h37.31.576,dynamic target,2022.1.3,120.08303165676838,
1,6,2,0,L,0,179,179,179,,,,,,,None,1004.1856779629491,None,1003.2115435929079,None,1003.6861102808268,None,1,[0.009544347219616611],[0.517634913324855],1004.1856779629491,None,[0 0 2 2 0 2 2 3],space,0,3.0702494794029462,0.00241411691013127,None,1004.202318994149,None,1,1007.2746562303162,None,space,1007.7825694434644,None,21.31822739912036,,,,,,,,,,,,,,,,,,,,,,,,,,,,,,,,,,,,,,,,,,,,,11_JH,11,24,F,2022-11-30_11h37.31.576,dynamic target,2022.1.3,120.08303165676838,
1,5,3,2,L,0,180,180,180,,,,,,,None,1030.146538121585,None,1029.1557835665328,1030.154865051397,1029.6469912856517,None,6,"[0.008741929318148323, 0.04190180098248675, 0.06736974980731247, 0.10852621937374352, 0.2001131466968218, 0.25838754411370246]","[0.017322541208159237, 0.058531286601009924, 0.07516301719397234, 0.11740541282506456, 0.20842853092744917, 0.7587983743819677]",1030.146538121585,None,[3 0 1 2 0 3 3 0],space,0,0.9143629647708167,0.0026010911860794295,None,1030.4046995647316,None,1,1031.3205396532992,None,None,1031.8201145193384,None,,,,,,,,,,,,,,,,,,,,,,,,,,,,,,,,,,,,,,,,,,,,,,11_JH,11,24,F,2022-11-30_11h37.31.576,dynamic target,2022.1.3,120.08303165676838,
1,4,3,2,L,0,181,181,181,,,,,,,None,1032.8525565124135,None,1031.8700583308425,1032.8692068442208,1032.3529731154724,None,3,"[0.008029951803564472, 0.8241611173043566, 0.8578995508769367]","[0.05786324643759144, 0.8334617244736364, 1.3654686415598007]",1032.8525565124135,None,[2 3 3 1 3 1 0 0],space,0,0.8655011025196018,0.0032287218136843876,None,1033.7184558682982,None,1,1034.5843767117929,None,None,1035.0839518985426,None,,,,,,,,,,,,,,,,,,,,,,,,,,,,,,,,,,,,,,,,,,,,,,11_JH,11,24,F,2022-11-30_11h37.31.576,dynamic target,2022.1.3,120.08303165676838,
1,3,3,2,L,0,182,182,182,,,,,,,None,1036.1164015886718,None,1035.133908859181,None,1035.6168230023898,None,1,[0.008622624977761006],[0.5176390825627095],1036.1164015886718,None,[0 2 2 1 0 1 3 2],space,0,0.7053654932531117,0.0024234175180026796,None,1036.1330788601688,None,1,1036.840765587497,None,None,1037.3403388499833,None,,,,,,,,,,,,,,,,,,,,,,,,,,,,,,,,,,,,,,,,,,,,,,11_JH,11,24,F,2022-11-30_11h37.31.576,dynamic target,2022.1.3,120.08303165676838,
1,2,4,2,L,0,183,183,183,,,,,,,None,1038.3644369155852,None,1037.3736544587111,None,1037.864874685543,None,1,[0.008649885378417821],[0.5172571162474924],1038.3644369155852,None,[0 1 3 1 1 2 3 1],space,0,0.6657724878225508,0.0028079495177735225,None,1038.3811151492139,None,1,1039.0472005813842,None,None,1039.5467683917905,None,,,,,,,,,,,,,,,,,,,,,,,,,,,,,,,,,,,,,,,,,,,,,,11_JH,11,24,F,2022-11-30_11h37.31.576,dynamic target,2022.1.3,120.08303165676838,
1,1,2,2,L,0,184,184,184,,,,,,,None,1040.5791994807053,None,1039.60505741361,None,1040.0796324400046,None,1,[0.007701864868067787],[0.5165053706195977],1040.5791994807053,None,[0 2 1 0 3 3 0 0],space,0,0.498508764936787,0.002585055655799806,None,1040.595839870484,None,1,1041.0954389822443,None,None,1041.5949837014878,None,,,,,,,,,,,,,,,,,,,,,,,,,,,,,,,,,,,,,,,,,,,,,,11_JH,11,24,F,2022-11-30_11h37.31.576,dynamic target,2022.1.3,120.08303165676838,
1,3,4,0,L,0,185,185,185,,,,,,,None,1042.627438202276,None,1041.6449765817126,None,1042.1278724444176,None,1,[0.008004615666777681],[0.516881243433545],1042.627438202276,None,[1 1 1 0 3 2 2 0],space,0,2.8497112372308493,0.0016328659080500074,None,1042.6440808370292,None,1,1045.4999451584888,None,None,1045.9995100824995,None,,,,,,,,,,,,,,,,,,,,,,,,,,,,,,,,,,,,,,,,,,,,,,11_JH,11,24,F,2022-11-30_11h37.31.576,dynamic target,2022.1.3,120.08303165676838,
1,2,4,2,L,0,186,186,186,,,,,,,None,1047.0319457896471,None,1046.0494747401924,None,1046.5240526529822,None,1,[0.008643791876693285],[0.5163960083077654],1047.0319457896471,None,[3 0 3 2 3 2 3 2],space,0,0.9338919948515922,0.0028082702274332405,None,1047.0402870231512,None,1,1047.9728136838228,None,None,1048.4723843806246,None,,,,,,,,,,,,,,,,,,,,,,,,,,,,,,,,,,,,,,,,,,,,,,11_JH,11,24,F,2022-11-30_11h37.31.576,dynamic target,2022.1.3,120.08303165676838,
1,1,4,2,L,0,187,187,187,,,,,,,None,1049.5048000754311,None,1048.5307102841623,1049.5297779784712,1049.0052577294462,None,2,"[0.008649243957279396, 0.7668581522711975]","[0.49978127537633554, 1.2749099123948326]",1049.5048000754311,None,[2 1 2 3 1 3 0 1],space,0,0.6387798808434582,0.002552663886035589,None,1050.2791535549488,None,1,1050.9202723089495,None,None,1051.4198160660612,None,,,,,,,,,,,,,,,,,,,,,,,,,,,,,,,,,,,,,,,,,,,,,,11_JH,11,24,F,2022-11-30_11h37.31.576,dynamic target,2022.1.3,120.08303165676838,
1,8,2,2,L,0,188,188,188,,,,,,,None,1052.4522984686712,None,1051.4781458181262,None,1051.9527038468593,None,1,[0.008743212159970426],[0.5170374294916655],1052.4522984686712,None,[0 3 3 1 0 3 1 2],space,0,0.8818082739933288,0.0030757428626202454,None,1052.468951366163,None,1,1053.3514962431962,None,None,1053.8510701471037,None,,,,,,,,,,,,,,,,,,,,,,,,,,,,,,,,,,,,,,,,,,,,,,11_JH,11,24,F,2022-11-30_11h37.31.576,dynamic target,2022.1.3,120.08303165676838,
1,7,1,2,L,0,189,189,189,,,,,,,None,1054.8834948218066,None,1053.9093473026317,None,1054.383938043845,None,1,[0.008717876023638382],[0.5171750143358622],1054.8834948218066,None,[1 0 3 2 2 3 3 0],space,0,1.1376666943781402,0.0022890397799528728,None,1054.900159906301,None,1,1056.0408139506542,None,None,1056.5403955516158,None,,,,,,,,,,,,,,,,,,,,,,,,,,,,,,,,,,,,,,,,,,,,,,11_JH,11,24,F,2022-11-30_11h37.31.576,dynamic target,2022.1.3,120.08303165676838,
1,6,4,2,L,0,190,190,190,,,,,,,None,1057.572826640531,None,1056.5987576954506,None,1057.0732775596232,None,1,[0.00865854456424131],[0.5172391564542522],1057.572826640531,None,[2 0 2 2 3 3 2 1],space,0,0.9123941224459031,0.002799931753088458,None,1057.589484027971,None,1,1058.5053561875977,None,None,1059.0049368264276,None,,,,,,,,,,,,,,,,,,,,,,,,,,,,,,,,,,,,,,,,,,,,,,11_JH,11,24,F,2022-11-30_11h37.31.576,dynamic target,2022.1.3,120.08303165676838,
1,5,2,2,L,0,191,191,191,,,,,,,None,1060.0374099284302,None,1059.0632819726009,1060.0623650610185,1059.537814023776,None,1,[0.10021051443254692],[0.6083758061058688],1060.0374099284302,None,[0 3 1 1 1 0 0 1],space,0,1.252506743177264,0.002884278638248361,None,1060.1456125508164,None,1,1061.4028663829874,None,None,1061.9024223271017,None,,,,,,,,,,,,,,,,,,,,,,,,,,,,,,,,,,,,,,,,,,,,,,11_JH,11,24,F,2022-11-30_11h37.31.576,dynamic target,2022.1.3,120.08303165676838,
1,4,4,2,L,0,192,192,192,,,,,,,None,1062.9348749036265,None,1061.9523921161638,None,1062.4353065800835,None,1,[0.007816999970600591],[0.516611846536307],1062.9348749036265,None,[1 3 0 3 3 2 3 3],space,0,1.0368772973267824,0.0024885217685550742,None,1062.9515136898524,None,1,1063.9922843445768,None,None,1064.4918579277737,None,,,,,,,,,,,,,,,,,,,,,,,,,,,,,,,,,,,,,,,,,,,,,,11_JH,11,24,F,2022-11-30_11h37.31.576,dynamic target,2022.1.3,120.08303165676838,
1,3,4,2,L,0,193,193,193,,,,,,,None,1065.5242999208488,None,1064.5502142988178,1065.5492819931267,1065.0247457085713,None,2,"[0.008652771773085988, 0.8502695251813748]","[0.499775181874611, 1.3581189169217396]",1065.5242999208488,None,[0 1 1 3 0 2 0 3],space,0,0.6469984104744526,0.0026658747251531167,None,1066.3818713847897,None,1,1067.0313257277887,None,None,1067.5308848790087,None,,,,,,,,,,,,,,,,,,,,,,,,,,,,,,,,,,,,,,,,,,,,,,11_JH,11,24,F,2022-11-30_11h37.31.576,dynamic target,2022.1.3,120.08303165676838,
1,2,1,2,L,0,194,194,194,,,,,,,None,1068.5633262306626,None,1067.5891767872238,None,1068.0637572656985,None,1,[0.00951869037180586],[0.5174017567242117],1068.5633262306626,None,[3 2 0 1 3 0 0 2],space,0,0.6888270894426114,0.0024599785251666617,None,1068.5800108785031,None,1,1069.271055291789,None,None,1069.7706275921432,None,,,,,,,,,,,,,,,,,,,,,,,,,,,,,,,,,,,,,,,,,,,,,,11_JH,11,24,F,2022-11-30_11h37.31.576,dynamic target,2022.1.3,120.08303165676838,
1,2,2,0,L,0,195,195,195,,,,,,,None,1070.8030705473504,None,1069.8205989847586,None,1070.3035099208616,None,1,[0.008945901254719502],[0.517532285935431],1070.8030705473504,None,[3 0 3 2 2 0 3 1],space,0,1.1532622090483073,0.002468637711899646,None,1070.8197414046356,None,1,1071.977038404452,None,None,1072.4766302681528,None,,,,,,,,,,,,,,,,,,,,,,,,,,,,,,,,,,,,,,,,,,,,,,11_JH,11,24,F,2022-11-30_11h37.31.576,dynamic target,2022.1.3,120.08303165676838,
1,1,1,2,L,0,196,196,196,,,,,,,None,1073.5007698337054,None,1072.5349388533184,None,1073.001168027976,None,1,[0.00881184422678416],[0.509010364083224],1073.5007698337054,None,[3 3 3 2 3 3 2 2],space,0,0.6560039638995931,0.0025802449968068686,None,1073.5090642434632,None,1,1074.1668288393228,None,None,1074.6664004982558,None,,,,,,,,,,,,,,,,,,,,,,,,,,,,,,,,,,,,,,,,,,,,,,11_JH,11,24,F,2022-11-30_11h37.31.576,dynamic target,2022.1.3,120.08303165676838,
1,8,4,2,L,0,197,197,197,,,,,,,None,1075.6905110715709,None,1074.708036622584,None,1075.1909581421362,None,1,[0.007925720861294394],[0.5167475071166336],1075.6905110715709,None,[2 1 0 3 3 3 0 3],space,0,1.3691745216403888,0.0023759523505759716,None,1075.707174231802,None,1,1077.0809739724111,None,None,1077.5805584597683,None,,,,,,,,,,,,,,,,,,,,,,,,,,,,,,,,,,,,,,,,,,,,,,11_JH,11,24,F,2022-11-30_11h37.31.576,dynamic target,2022.1.3,120.08303165676838,
1,7,3,2,L,0,198,198,198,,,,,,,None,1078.6129829420452,None,1077.638841067376,None,1078.105088201827,None,1,[0.009359297207538475],[0.516477148087688],1078.6129829420452,None,[1 0 0 0 0 3 3 2],space,0,0.6797336613151401,0.0028878064549644478,None,1078.621296273728,None,1,1079.30402915131,None,None,1079.8036113936928,None,,,,,,,,,,,,,,,,,,,,,,,,,,,,,,,,,,,,,,,,,,,,,,11_JH,11,24,F,2022-11-30_11h37.31.576,dynamic target,2022.1.3,120.08303165676838,
1,6,3,2,L,0,199,199,199,,,,,,,None,1080.8277341540104,None,1079.8619696890007,1080.861043476811,1080.3281667925992,None,5,"[0.008679070042035164, 0.07518835333075913, 0.09184157153322303, 0.11684865923734833, 0.1834025212983761]","[0.06682165540541973, 0.08349379553283143, 0.10846977430946936, 0.175090985595034, 0.6922393809518326]",1080.8277341540104,None,[1 3 2 0 1 0 2 0],space,0,0.8092981748166039,0.002698587205941294,None,1081.0192134508586,None,0,1081.8351951652237,None,None,1082.3347446951261,None,,,,,,,,,,,,,,,,,,,,,,,,,,,,,,,,,,,,,,,,,,,,,,11_JH,11,24,F,2022-11-30_11h37.31.576,dynamic target,2022.1.3,120.08303165676838,
1,5,1,2,L,0,200,200,200,,,,,,,None,1083.3672062515473,None,1082.3847208984,None,1082.8676513978492,None,1,[0.009388161161041353],[0.5175088740620595],1083.3672062515473,None,[3 0 1 0 3 1 3 3],space,0,1.196704703714886,0.0024933324270932644,None,1083.3838565833546,None,1,1084.5828299246075,None,None,1085.0823650225334,None,,,,,,,,,,,,,,,,,,,,,,,,,,,,,,,,,,,,,,,,,,,,,,11_JH,11,24,F,2022-11-30_11h37.31.576,dynamic target,2022.1.3,120.08303165676838,
1,4,4,2,L,0,201,201,201,,,,,,,None,1086.114833955298,None,1085.1406896432288,1086.1397842772274,1085.6152608210962,None,1,[0.1498792845331991],[0.6501493228515756],1086.114833955298,None,[3 0 2 3 0 3 1 1],space,0,0.811164710462208,0.002603336160063918,None,1086.2647052220666,None,1,1087.080654223951,None,None,1087.5802326178068,None,,,,,,,,,,,,,,,,,,,,,,,,,,,,,,,,,,,,,,,,,,,,,,11_JH,11,24,F,2022-11-30_11h37.31.576,dynamic target,2022.1.3,120.08303165676838,
1,3,2,2,L,0,202,202,202,,,,,,,None,1088.6126489540345,None,1087.6301706565202,None,1088.1130934589148,None,1,[0.016537120968223462],[0.5173154855751818],1088.6126489540345,None,[2 1 3 0 3 1 1 3],space,0,0.8459460948799915,0.0023041131776153634,None,1088.6293121142655,None,1,1089.4786057171152,None,None,1089.9781392114883,None,,,,,,,,,,,,,,,,,,,,,,,,,,,,,,,,,,,,,,,,,,,,,,11_JH,11,24,F,2022-11-30_11h37.31.576,dynamic target,2022.1.3,120.08303165676838,
1,2,3,2,L,0,203,203,203,,,,,,,None,1091.0105937122764,None,1090.0281221496846,None,1090.5110269922864,None,1,[0.009147307506282232],[0.5176551180920796],1091.0105937122764,None,[2 1 3 2 2 3 3 2],space,0,0.8323072355321983,0.0024433015742033604,None,1091.027276115143,None,1,1091.8598594133048,None,None,1092.359420168078,None,,,,,,,,,,,,,,,,,,,,,,,,,,,,,,,,,,,,,,,,,,,,,,11_JH,11,24,F,2022-11-30_11h37.31.576,dynamic target,2022.1.3,120.08303165676838,
1,1,3,2,L,0,204,204,204,,,,,,,None,1093.3919038535303,None,1092.4010614237752,1093.4001804317793,1092.8923037796383,None,2,"[0.009547875035423203, 0.8504318047407651]","[0.3749453188438565, 1.3580002540024907]",1093.3919038535303,None,[3 2 2 2 3 0 2 3],space,0,0.7622762292323841,0.0028990313257963862,None,1094.2494445292548,None,1,1095.0154566469835,None,None,1095.515038247945,None,,,,,,,,,,,,,,,,,,,,,,,,,,,,,,,,,,,,,,,,,,,,,,11_JH,11,24,F,2022-11-30_11h37.31.576,dynamic target,2022.1.3,120.08303165676838,
1,8,2,2,L,0,205,205,205,,,,,,,None,1096.547470298992,None,1095.5733375325042,None,1096.0478920334206,None,1,[0.008667524460634013],[0.5171888048912479],1096.547470298992,None,[0 2 3 2 1 1 0 3],space,0,0.9113463609417067,0.0028967863518118975,None,1096.5641392320138,None,1,1097.4799992046376,None,None,1097.9795965204185,None,,,,,,,,,,,,,,,,,,,,,,,,,,,,,,,,,,,,,,,,,,,,,,11_JH,11,24,F,2022-11-30_11h37.31.576,dynamic target,2022.1.3,120.08303165676838,
1,1,4,1,L,0,206,206,206,,,,,,,None,1099.0120152299046,None,1098.0378704688403,None,1098.5040999642085,None,1,[0.00940002745255697],[0.516367785775401],1099.0120152299046,None,[2 3 3 1 0 0 3 3],space,0,3.0150234361638013,0.0030552173839168972,None,1099.0203349757992,None,1,1102.034374081966,None,None,1102.5339585693227,None,,,,,,,,,,,,,,,,,,,,,,,,,,,,,,,,,,,,,,,,,,,,,,11_JH,11,24,F,2022-11-30_11h37.31.576,dynamic target,2022.1.3,120.08303165676838,
1,2,4,1,L,0,207,207,207,,,,,,,None,1103.5663813197627,None,1102.592285114282,None,1103.0668357666716,None,1,[0.008628718479030795],[0.5172760381719854],1103.5663813197627,None,[3 2 3 2 0 0 1 2],space,0,3.0760164972696202,0.002766898562640563,None,1103.5830585912593,None,1,1106.6637102495258,None,None,1107.1632976232781,None,,,,,,,,,,,,,,,,,,,,,,,,,,,,,,,,,,,,,,,,,,,,,,11_JH,11,24,F,2022-11-30_11h37.31.576,dynamic target,2022.1.3,120.08303165676838,
1,1,2,2,L,0,208,208,208,,,,,,,None,1108.1874030652236,None,1107.2132574703116,None,1107.6878324967063,None,1,[0.008674259383042227],[0.5176826992033057],1108.1874030652236,None,[3 1 2 2 1 2 2 2],space,0,1.750875929816857,0.002387497931977123,None,1108.2040902787487,None,1,1109.9525261731912,None,None,1110.4521003978093,None,,,,,,,,,,,,,,,,,,,,,,,,,,,,,,,,,,,,,,,,,,,,,,11_JH,11,24,F,2022-11-30_11h37.31.576,dynamic target,2022.1.3,120.08303165676838,
