tar_letter,tar_pos,tar_ori,tar_pos_type,block,trials.thisRepN,trials.thisTrialN,trials.thisN,trials.thisIndex,instructions_key.keys,instructions_key.rt,instructions_key.started,instructions_key.stopped,instruction_text.started,instruction_text.stopped,fix_key.keys,fix_key.started,fix_key.stopped,fixcross.started,fixcross.stopped,roi.started,roi.stopped,roi.numLooks,roi.timesOn,roi.timesOff,RedFixCross.started,RedFixCross.stopped,distori,search_resp.keys,search_resp.corr,search_resp.rt,search_resp.started,search_resp.stopped,fixcross_shape.started,fixcross_shape.stopped,correct,feedback_text.started,feedback_text.stopped,break_key.keys,break_key.started,break_key.stopped,break_key.rt,fix_key.rt,text_q1.started,text_q1.stopped,key_resp1.keys,key_resp1.rt,key_resp1.started,key_resp1.stopped,text_q2.started,text_q2.stopped,key_resp_2.keys,key_resp_2.rt,key_resp_2.started,key_resp_2.stopped,image.started,image.stopped,text_q1_2.started,text_q1_2.stopped,slider.response,slider.rt,slider.started,slider.stopped,mouse.x,mouse.y,mouse.leftButton,mouse.midButton,mouse.rightButton,mouse.time,mouse.started,mouse.stopped,key_resp_3.keys,key_resp_3.rt,key_resp_3.started,key_resp_3.stopped,text_q4.started,text_q4.stopped,key_resp1_3.keys,key_resp1_3.rt,key_resp1_3.started,key_resp1_3.stopped,finish_text.started,finish_text.stopped,key_resp.keys,key_resp.rt,key_resp.started,key_resp.stopped,participant,group,age,gender,date,expName,psychopyVersion,frameRate,
,,,,,,,,,space,9.47716451438464,59.897818716772235,None,,,,,,,,,,,,,,,,,,,,,,,,,,,,,,,,,,,,,,,,,,,,,,,,,,,,,,,,,,,,,,,,,,,,,,,,,,,12_ZXF,12,24,F,2022-12-01_14h50.17.264,dynamic target,2022.1.3,120.0890068277893,
0,6,4,0,T,0,0,0,0,,,,,59.897818716772235,None,None,130.8875487928746,None,129.90609061435316,None,130.3796294900585,None,1,[0.008885747300155344],[0.5164717945026496],130.8875487928746,None,[1 1 3 1 3 2 1 2],space,0,2.9780184197534254,0.0062857698158040876,None,130.90418588421562,None,1,133.8849727728466,None,None,134.38455699710192,None,,,,,,,,,,,,,,,,,,,,,,,,,,,,,,,,,,,,,,,,,,,,,,,12_ZXF,12,24,F,2022-12-01_14h50.17.264,dynamic target,2022.1.3,120.0890068277893,
0,5,4,2,T,0,1,1,1,,,,,,,None,135.408691778488,None,134.42626507082787,None,134.90911464204873,None,1,[0.008697487224708311],[0.5172023847117089],135.408691778488,None,[2 2 3 2 2 2 1 3],space,0,4.0855665583694645,0.0028046902752976166,None,135.42534718269053,None,1,139.5135407743419,None,None,140.01311537712735,None,,,,,,,,,,,,,,,,,,,,,,,,,,,,,,,,,,,,,,,,,,,,,,,12_ZXF,12,24,F,2022-12-01_14h50.17.264,dynamic target,2022.1.3,120.0890068277893,
0,4,3,2,T,0,2,2,2,,,,,,,None,141.03725176209264,None,140.046428077756,141.04557625703637,140.53767719137795,None,9,"[0.008723144474060973, 0.25003183102489857, 0.2666481079213554, 0.5500369304045307, 0.5918819817779877, 0.6335208130003593, 0.6753751651285711, 0.7006546126758622, 0.7671845048153045]","[0.17505493056887644, 0.25837332389892254, 0.5338334145271801, 0.583539206041678, 0.6255442945166578, 0.6673361070952524, 0.6916601427747082, 0.7252939118225186, 1.2745967241462495]",141.03725176209264,None,[1 3 2 0 1 0 2 2],space,0,2.498787483013075,0.0029660102372872643,None,141.81159720554024,None,1,144.30947262483642,None,None,144.80904658619164,None,,,,,,,,,,,,,,,,,,,,,,,,,,,,,,,,,,,,,,,,,,,,,,,12_ZXF,12,24,F,2022-12-01_14h50.17.264,dynamic target,2022.1.3,120.0890068277893,
0,3,2,2,T,0,3,3,3,,,,,,,None,145.83317880185132,None,144.84236730470911,None,145.3336007032649,None,1,[0.009461111145355972],[0.5175891677645268],145.83317880185132,None,[3 1 3 0 1 3 2 2],space,0,2.347967749890813,0.0025243848122045165,None,145.84982715031038,None,1,148.19783792763883,None,None,148.69741349257146,None,,,,,,,,,,,,,,,,,,,,,,,,,,,,,,,,,,,,,,,,,,,,,,,12_ZXF,12,24,F,2022-12-01_14h50.17.264,dynamic target,2022.1.3,120.0890068277893,
0,7,4,0,T,0,4,4,4,,,,,,,None,149.7215450668009,None,148.74743547762773,149.74652304165465,149.22196825107676,None,2,"[0.008670867828186601, 0.7921121273157041]","[0.4415927123136498, 1.2996907980596006]",149.7215450668009,None,[2 1 3 3 2 1 0 3],space,0,4.748429965260584,0.002866588392862468,None,150.52087008868148,None,1,155.26684310302699,None,None,155.766415460803,None,,,,,,,,,,,,,,,,,,,,,,,,,,,,,,,,,,,,,,,,,,,,,,,12_ZXF,12,24,F,2022-12-01_14h50.17.264,dynamic target,2022.1.3,120.0890068277893,
0,6,3,2,T,0,5,5,5,,,,,,,None,156.79053099925113,None,155.8080472042093,None,156.29097086074034,None,1,[0.008582029598983354],[0.5170147660683142],156.79053099925113,None,[2 1 3 0 1 1 2 1],space,0,1.8869749489967944,0.0029214307651272975,None,156.80720372209726,None,1,158.6972611205747,None,None,159.1968437412508,None,,,,,,,,,,,,,,,,,,,,,,,,,,,,,,,,,,,,,,,,,,,,,,,12_ZXF,12,24,F,2022-12-01_14h50.17.264,dynamic target,2022.1.3,120.0890068277893,
0,5,4,2,T,0,6,6,6,,,,,,,None,160.22928601965396,None,159.25519535270178,None,159.72970567605807,None,1,[0.008615704738986096],[0.5171565223790822],160.22928601965396,None,[0 3 0 1 2 2 2 3],space,0,2.6072836570328946,0.002623485943331616,None,160.2459401409924,None,1,162.85207119758707,None,None,163.35166825046707,None,,,,,,,,,,,,,,,,,,,,,,,,,,,,,,,,,,,,,,,,,,,,,,,12_ZXF,12,24,F,2022-12-01_14h50.17.264,dynamic target,2022.1.3,120.0890068277893,
0,4,3,2,T,0,7,7,7,,,,,,,None,164.37577833674914,None,163.3932801095052,None,163.87619735172302,None,1,[0.009531027151751914],[0.5174393935649277],164.37577833674914,None,[0 0 1 3 0 3 3 2],space,0,2.939947549937642,0.0025195740763592767,None,164.39242989236482,None,1,167.33160488988688,None,None,167.8311759648006,None,,,,,,,,,,,,,,,,,,,,,,,,,,,,,,,,,,,,,,,,,,,,,,,12_ZXF,12,24,F,2022-12-01_14h50.17.264,dynamic target,2022.1.3,120.0890068277893,
0,3,1,2,T,0,8,8,8,,,,,,,None,168.8636320339756,None,167.88951570977406,None,168.36405938755524,None,1,[0.008573049559345236],[0.5169740351830114],168.8636320339756,None,[2 2 1 0 1 3 0 3],space,0,2.2290216984310973,0.0029252793501655106,None,168.88028519316867,None,1,171.11172257328144,None,None,171.61131224970103,None,,,,,,,,,,,,,,,,,,,,,,,,,,,,,,,,,,,,,,,,,,,,,,,12_ZXF,12,24,F,2022-12-01_14h50.17.264,dynamic target,2022.1.3,120.0890068277893,
0,2,2,2,T,0,9,9,9,,,,,,,None,172.64375677311364,None,171.66963692104036,None,172.144182843831,None,1,[0.009306846925028367],[0.5174621643745922],172.64375677311364,None,[0 2 1 1 0 2 3 2],space,0,2.272386621183614,0.002565115697507281,None,172.66039870725945,None,1,174.93348005004555,None,None,175.43305433211407,None,,,,,,,,,,,,,,,,,,,,,,,,,,,,,,,,,,,,,,,,,,,,,,,12_ZXF,12,24,F,2022-12-01_14h50.17.264,dynamic target,2022.1.3,120.0890068277893,
0,1,3,2,T,0,10,10,10,,,,,,,None,176.46551168415135,None,175.47469313126567,176.47384547984984,175.96593679272155,None,2,"[0.008514037883287529, 0.9584670049353008]","[0.2832441797327192, 1.4659687039275013]",176.46551168415135,None,[0 1 3 3 3 2 0 3],space,0,1.9817537947201345,0.0030105897076282417,None,177.4313452064398,None,1,179.41301085590385,None,None,179.91258770369876,None,,,,,,,,,,,,,,,,,,,,,,,,,,,,,,,,,,,,,,,,,,,,,,,12_ZXF,12,24,F,2022-12-01_14h50.17.264,dynamic target,2022.1.3,120.0890068277893,
0,8,3,2,T,0,11,11,11,,,,,,,None,180.936715140697,None,179.94590521506143,None,180.43714182077383,None,1,[0.008666377807458048],[0.5087287569986074],180.936715140697,None,[0 3 2 1 2 1 3 2],space,0,3.3638983367654873,0.002848628317224211,None,180.94504537645116,None,1,184.30886166155688,None,None,184.8084311328932,None,,,,,,,,,,,,,,,,,,,,,,,,,,,,,,,,,,,,,,,,,,,,,,,12_ZXF,12,24,F,2022-12-01_14h50.17.264,dynamic target,2022.1.3,120.0890068277893,
0,7,2,2,T,0,12,12,12,,,,,,,None,185.84089650282112,None,184.86675131421362,185.8658719119503,185.34131166920633,None,2,"[0.008722182328710915, 0.15854096196017053]","[0.05852130209314055, 0.6587226473657211]",185.84089650282112,None,[0 1 2 0 3 0 2 2],space,0,1.4768886989422754,0.002878775583667448,None,185.99909237476095,None,1,187.4728361877569,None,None,187.97243131634258,None,,,,,,,,,,,,,,,,,,,,,,,,,,,,,,,,,,,,,,,,,,,,,,,12_ZXF,12,24,F,2022-12-01_14h50.17.264,dynamic target,2022.1.3,120.0890068277893,
0,2,1,0,T,0,13,13,13,,,,,,,None,189.00487583975337,None,188.02238370610758,None,188.50529357186497,None,1,[0.008271897580925724],[0.5170997557106602],189.00487583975337,None,[3 3 3 1 1 2 3 0],space,0,1.97453031654004,0.0021148309479031013,None,189.02151264245003,None,1,190.99484770337222,None,None,191.49442358901996,None,,,,,,,,,,,,,,,,,,,,,,,,,,,,,,,,,,,,,,,,,,,,,,,12_ZXF,12,24,F,2022-12-01_14h50.17.264,dynamic target,2022.1.3,120.0890068277893,
0,1,2,2,T,0,14,14,14,,,,,,,None,192.52688222391953,None,191.55276846544257,None,192.0273054081954,None,1,[0.008608328280388378],[0.5176475380103511],192.52688222391953,None,[0 2 3 0 2 0 3 1],space,0,2.9166286370473244,0.0022966767119214637,None,192.54356649252986,None,1,195.45773561293754,None,None,195.95730989500788,None,,,,,,,,,,,,,,,,,,,,,,,,,,,,,,,,,,,,,,,,,,,,,,,12_ZXF,12,24,F,2022-12-01_14h50.17.264,dynamic target,2022.1.3,120.0890068277893,
0,8,3,2,T,0,15,15,15,,,,,,,None,196.98975987058475,None,196.00726485049745,None,196.49019075203614,None,1,[0.009520443536530365],[0.5174374692705896],196.98975987058475,None,[2 3 3 0 0 0 3 0],space,0,1.541703403881911,0.002710079161261092,None,197.00641206763066,None,1,198.54677429028015,None,None,199.0463386301655,None,,,,,,,,,,,,,,,,,,,,,,,,,,,,,,,,,,,,,,,,,,,,,,,12_ZXF,12,24,F,2022-12-01_14h50.17.264,dynamic target,2022.1.3,120.0890068277893,
0,1,4,1,T,0,16,16,16,,,,,,,None,200.07880816939723,None,199.09631250787788,None,199.57923488154483,None,1,[0.00925585313962074],[0.5175866020399553],200.07880816939723,None,[0 3 2 0 0 1 1 3],space,0,1.9077383997300785,0.0025000104251375888,None,200.09545940429598,None,1,202.00217220697596,None,None,202.50177984347118,None,,,,,,,,,,,,,,,,,,,,,,,,,,,,,,,,,,,,,,,,,,,,,,,12_ZXF,12,24,F,2022-12-01_14h50.17.264,dynamic target,2022.1.3,120.0890068277893,
0,8,3,2,T,0,17,17,17,,,,,,,None,203.53420929324966,None,202.5601070805351,203.5591840609468,203.03461708317445,None,2,"[0.00863558910896245, 0.8178697618732258]","[0.1917927586910082, 1.324886859543767]",203.53420929324966,None,[3 2 2 1 2 0 3 2],space,0,4.108716774837376,0.0027646008202282246,None,204.35850876211225,None,1,208.4716819321966,None,None,208.9712571764141,None,,,,,,,,,,,,,,,,,,,,,,,,,,,,,,,,,,,,,,,,,,,,,,,12_ZXF,12,24,F,2022-12-01_14h50.17.264,dynamic target,2022.1.3,120.0890068277893,
0,1,1,1,T,0,18,18,18,,,,,,,None,210.00372543278172,None,209.01287929835235,210.01201529043828,209.50414059916693,None,1,[0.8253126095441985],[1.3330048136213009],210.00372543278172,None,[3 1 3 1 2 2 3 3],space,0,1.823381849897487,0.003020531892616418,None,210.83634330299355,None,1,212.65979223399881,None,None,213.15937036465783,None,,,,,,,,,,,,,,,,,,,,,,,,,,,,,,,,,,,,,,,,,,,,,,,12_ZXF,12,24,F,2022-12-01_14h50.17.264,dynamic target,2022.1.3,120.0890068277893,
0,8,1,2,T,0,19,19,19,,,,,,,None,214.1918277166933,None,213.21766905802906,None,213.69225090097098,None,1,[0.008575615283916704],[0.5171552395149774],214.1918277166933,None,[0 1 1 3 0 0 0 1],space,0,1.5064083278593898,0.002945805150375236,None,214.2084885730619,None,1,215.71552331009298,None,None,216.21511426937667,None,,,,,,,,,,,,,,,,,,,,,,,,,,,,,,,,,,,,,,,,,,,,,,,12_ZXF,12,24,F,2022-12-01_14h50.17.264,dynamic target,2022.1.3,120.0890068277893,
0,7,3,2,T,0,20,20,20,,,,,,,None,217.23923975000798,None,216.25674665421502,None,216.73966325500078,None,1,[0.00864681415623636],[0.5175872434720077],217.23923975000798,None,[2 0 3 3 0 2 1 1],space,0,1.9939329708467994,0.0025766614580788882,None,217.2559050963955,None,1,219.25418317416734,None,None,219.75377317130386,None,,,,,,,,,,,,,,,,,,,,,,,,,,,,,,,,,,,,,,,,,,,,,,,12_ZXF,12,24,F,2022-12-01_14h50.17.264,dynamic target,2022.1.3,120.0890068277893,
0,6,2,2,T,0,21,21,21,,,,,,,None,220.7862285990468,None,219.8121183684434,None,220.2866521040396,None,1,[0.008681772158524836],[0.517470502980359],220.7862285990468,None,[3 0 0 0 2 2 1 2],space,0,2.2393987734194525,0.00264016315304616,None,220.80288400324935,None,1,223.0426490854643,None,None,223.54222657468944,None,,,,,,,,,,,,,,,,,,,,,,,,,,,,,,,,,,,,,,,,,,,,,,,12_ZXF,12,24,F,2022-12-01_14h50.17.264,dynamic target,2022.1.3,120.0890068277893,
0,7,1,1,T,0,22,22,22,,,,,,,None,224.5746688530926,None,223.6005515667439,224.59966671231632,224.0751058281403,None,2,"[0.008675357845277176, 0.1423175617146626]","[0.03441663590456301, 0.650321501385406]",224.5746688530926,None,[0 2 2 1 1 0 2 1],space,0,1.198363208301089,0.002992629633808974,None,224.72455562443793,None,1,225.92353497901058,None,None,226.42311343038472,None,,,,,,,,,,,,,,,,,,,,,,,,,,,,,,,,,,,,,,,,,,,,,,,12_ZXF,12,24,F,2022-12-01_14h50.17.264,dynamic target,2022.1.3,120.0890068277893,
0,6,4,2,T,0,23,23,23,,,,,,,None,227.455570782422,None,226.4814576653771,227.4805477951286,226.95599396669786,None,2,"[0.12519519555098668, 0.9501024205364956]","[0.6257521182469645, 1.4577962281910004]",227.455570782422,None,[0 1 3 2 0 2 0 0],space,0,1.7813004311046825,0.0030468305758404313,None,228.41309039338012,None,1,230.19491139749698,None,None,230.6944853588504,None,,,,,,,,,,,,,,,,,,,,,,,,,,,,,,,,,,,,,,,,,,,,,,,12_ZXF,12,24,F,2022-12-01_14h50.17.264,dynamic target,2022.1.3,120.0890068277893,
0,5,2,2,T,0,24,24,24,,,,,,,None,231.7186211344544,None,230.7277919658809,None,231.21904204165003,None,1,[0.008625005491921911],[0.5088897562454804],231.7186211344544,None,[1 3 3 3 0 1 2 0],space,0,2.595040337782848,0.002794427371554775,None,231.72694271088767,None,1,234.32473997178386,None,None,234.8243200267354,None,,,,,,,,,,,,,,,,,,,,,,,,,,,,,,,,,,,,,,,,,,,,,,,12_ZXF,12,24,F,2022-12-01_14h50.17.264,dynamic target,2022.1.3,120.0890068277893,
0,6,2,1,T,0,25,25,25,,,,,,,None,235.85677256803683,None,234.88263186944823,None,235.35720505306745,None,1,[0.008634626961793401],[0.5171581259564846],235.85677256803683,None,[1 0 1 0 0 0 1 1],space,0,2.945066171427243,0.002993271065861336,None,235.87345362949054,None,1,238.82092233325784,None,None,239.3204969360433,None,,,,,,,,,,,,,,,,,,,,,,,,,,,,,,,,,,,,,,,,,,,,,,,12_ZXF,12,24,F,2022-12-01_14h50.17.264,dynamic target,2022.1.3,120.0890068277893,
0,5,1,2,T,0,26,26,26,,,,,,,None,240.35295813666744,None,239.37884213318284,240.3779521473043,239.8533983188736,None,2,"[0.008767082517806557, 0.8006899876108946]","[0.4748640726975282, 1.3078353715336561]",240.35295813666744,None,[0 1 0 2 1 3 0 3],space,0,2.8897250855388847,0.0032501642854185775,None,241.1606079742105,None,1,244.0497885361474,None,None,244.5493942483501,None,,,,,,,,,,,,,,,,,,,,,,,,,,,,,,,,,,,,,,,,,,,,,,,12_ZXF,12,24,F,2022-12-01_14h50.17.264,dynamic target,2022.1.3,120.0890068277893,
0,4,2,2,T,0,27,27,27,,,,,,,None,245.58185993899315,None,244.59935465600574,None,245.0822757468104,None,1,[0.00947329833979893],[0.5175519647527835],245.58185993899315,None,[3 3 2 3 1 0 3 2],space,0,2.883042333916819,0.0025644742636359297,None,245.59850475958046,None,1,248.47940444390042,None,None,248.97896685949144,None,,,,,,,,,,,,,,,,,,,,,,,,,,,,,,,,,,,,,,,,,,,,,,,12_ZXF,12,24,F,2022-12-01_14h50.17.264,dynamic target,2022.1.3,120.0890068277893,
0,3,3,2,T,0,28,28,28,,,,,,,None,250.0114370401534,None,249.03730981162153,None,249.5118506029612,None,1,[0.008684337883096305],[0.5169458122072683],250.0114370401534,None,[2 2 2 2 1 3 0 2],space,0,1.5582071095905121,0.003029511932254536,None,250.0280786535841,None,1,251.58509050755492,None,None,252.0846641481932,None,,,,,,,,,,,,,,,,,,,,,,,,,,,,,,,,,,,,,,,,,,,,,,,12_ZXF,12,24,F,2022-12-01_14h50.17.264,dynamic target,2022.1.3,120.0890068277893,
0,2,2,2,T,0,29,29,29,,,,,,,None,253.11711094868605,None,252.12629653303156,None,252.61754596737046,None,1,[0.008684017167979619],[0.5088936048341566],253.11711094868605,None,[3 2 2 3 2 3 3 3],space,0,4.268117254690878,0.00274407501819951,None,253.1254495230478,None,1,257.39682946940593,None,None,257.8964047136216,None,,,,,,,,,,,,,,,,,,,,,,,,,,,,,,,,,,,,,,,,,,,,,,,12_ZXF,12,24,F,2022-12-01_14h50.17.264,dynamic target,2022.1.3,120.0890068277893,
0,1,4,2,T,0,30,30,30,,,,,,,None,258.9205282699604,None,257.9463840435001,None,258.42095530282495,None,1,[0.008652907752548344],[0.517710398275085],258.9205282699604,None,[2 1 3 0 1 1 3 1],space,0,1.9437781774468021,0.0023229753933264874,None,258.93719521992534,None,1,260.88553017661434,None,None,261.3851022136752,None,,,,,,,,,,,,,,,,,,,,,,,,,,,,,,,,,,,,,,,,,,,,,,,12_ZXF,12,24,F,2022-12-01_14h50.17.264,dynamic target,2022.1.3,120.0890068277893,
0,8,3,2,T,0,31,31,31,,,,,,,None,262.4175695078975,None,261.43505075485336,None,261.91798371213554,None,1,[0.00813847987956251],[0.5168409381967649],262.4175695078975,None,[3 2 2 0 0 1 2 2],space,0,1.3584480953159073,0.0028171981848572614,None,262.4342156113471,None,1,263.7913966107408,None,None,264.2909721756734,None,,,,,,,,,,,,,,,,,,,,,,,,,,,,,,,,,,,,,,,,,,,,,,,12_ZXF,12,24,F,2022-12-01_14h50.17.264,dynamic target,2022.1.3,120.0890068277893,
0,7,3,2,T,0,32,32,32,,,,,,,None,265.323428276921,None,264.34093226261393,None,264.81552116129933,None,1,[0.009157072725429316],[0.5164756430895068],265.323428276921,None,[2 0 3 0 0 3 0 1],space,0,1.3894054924130614,0.0029830081675754627,None,265.3317559469506,None,1,266.7222410197228,None,None,267.2218063217535,None,,,,,,,,,,,,,,,,,,,,,,,,,,,,,,,,,,,,,,,,,,,,,,,12_ZXF,12,24,F,2022-12-01_14h50.17.264,dynamic target,2022.1.3,120.0890068277893,
0,4,2,0,T,0,33,33,33,,,,,,,None,268.25427618170033,None,267.2801621025101,None,267.7547003281252,None,1,[0.008726672347620479],[0.5171629366905108],268.25427618170033,None,[2 2 3 1 0 0 3 2],space,0,1.9539605780482816,0.0029493330239347415,None,268.2709270958858,None,1,270.2276067526036,None,None,270.72717526179275,None,,,,,,,,,,,,,,,,,,,,,,,,,,,,,,,,,,,,,,,,,,,,,,,12_ZXF,12,24,F,2022-12-01_14h50.17.264,dynamic target,2022.1.3,120.0890068277893,
0,2,1,0,T,0,34,34,34,,,,,,,None,271.75131036389394,None,270.7854742758809,None,271.2517479803737,None,1,[0.0079919128347683],[0.5168810276500153],271.75131036389394,None,[3 0 1 0 3 1 0 2],space,0,1.4804387002714066,0.0026103366017196095,None,271.76796224022473,None,1,273.2500289445852,None,None,273.74961060311597,None,,,,,,,,,,,,,,,,,,,,,,,,,,,,,,,,,,,,,,,,,,,,,,,12_ZXF,12,24,F,2022-12-01_14h50.17.264,dynamic target,2022.1.3,120.0890068277893,
0,1,4,2,T,0,35,35,35,,,,,,,None,274.7820820666402,None,273.79961783525323,None,274.2824969123103,None,1,[0.008708391556865536],[0.5171645402697322],274.7820820666402,None,[1 2 1 3 1 1 0 0],space,0,2.68982431495715,0.002925920780398883,None,274.7987223972086,None,1,277.48811219402523,None,None,277.9876941732711,None,,,,,,,,,,,,,,,,,,,,,,,,,,,,,,,,,,,,,,,,,,,,,,,12_ZXF,12,24,F,2022-12-01_14h50.17.264,dynamic target,2022.1.3,120.0890068277893,
0,8,2,2,T,0,36,36,36,,,,,,,None,279.0201367723894,None,278.0460111474349,None,278.52056861598794,None,1,[0.008634306244857726],[0.5172617171047023],279.0201367723894,None,[0 3 3 0 1 2 3 2],space,0,1.0593929556380317,0.0028463833059504395,None,279.03679121444475,None,1,280.0942329877198,None,None,280.59380181762407,None,,,,,,,,,,,,,,,,,,,,,,,,,,,,,,,,,,,,,,,,,,,,,,,12_ZXF,12,24,F,2022-12-01_14h50.17.264,dynamic target,2022.1.3,120.0890068277893,
0,7,4,2,T,0,37,37,37,,,,,,,None,281.6262479446141,None,280.65213739329374,None,281.126696465426,None,1,[0.008616025454102783],[0.5174830108917376],281.6262479446141,None,[1 0 1 1 3 3 3 2],space,0,1.3647886433609528,0.002004184054385405,None,281.64291104599215,None,1,283.0084062774313,None,None,283.50800140601694,None,,,,,,,,,,,,,,,,,,,,,,,,,,,,,,,,,,,,,,,,,,,,,,,12_ZXF,12,24,F,2022-12-01_14h50.17.264,dynamic target,2022.1.3,120.0890068277893,
0,6,2,2,T,0,38,38,38,,,,,,,None,284.540458116624,None,283.5663482067357,None,284.040882263047,None,1,[0.008658680633743643],[0.5174621643745922],284.540458116624,None,[0 1 1 1 1 3 3 1],space,0,3.139255958749345,0.0027719772788259434,None,284.55711255867936,None,1,287.69610782716154,None,None,288.1957016728849,None,,,,,,,,,,,,,,,,,,,,,,,,,,,,,,,,,,,,,,,,,,,,,,,12_ZXF,12,24,F,2022-12-01_14h50.17.264,dynamic target,2022.1.3,120.0890068277893,
0,5,3,2,T,0,39,39,39,,,,,,,None,289.2281455548655,None,288.2540202506261,None,288.72856007982045,None,1,[0.008633664814624353],[0.5169891088189615],289.2281455548655,None,[0 2 1 3 1 3 3 1],space,0,3.3793276451069687,0.0030898064687789883,None,289.24479262046225,None,1,292.6252569333101,None,None,293.1248318568125,None,,,,,,,,,,,,,,,,,,,,,,,,,,,,,,,,,,,,,,,,,,,,,,,12_ZXF,12,24,F,2022-12-01_14h50.17.264,dynamic target,2022.1.3,120.0890068277893,
0,4,4,2,T,0,40,40,40,,,,,,,None,294.1572930574366,None,293.16646744880745,None,293.6577268253295,None,1,[0.008654511329950765],[0.5172049504380993],294.1572930574366,None,[2 3 3 0 1 1 0 0],space,0,2.8014644643189968,0.0028518354702100623,None,294.1739500652184,None,1,296.9798930541656,None,None,297.4794840134493,None,,,,,,,,,,,,,,,,,,,,,,,,,,,,,,,,,,,,,,,,,,,,,,,12_ZXF,12,24,F,2022-12-01_14h50.17.264,dynamic target,2022.1.3,120.0890068277893,
0,5,2,1,T,0,41,41,41,,,,,,,None,298.51192853686007,None,297.5294803412544,None,298.0123363267867,None,1,[0.00869844937187736],[0.5174028319834179],298.51192853686007,None,[1 0 3 3 3 1 0 3],space,0,3.295026899797449,0.0027341328332113335,None,298.5285823374852,None,1,301.82577668506383,None,None,302.32535770216253,None,,,,,,,,,,,,,,,,,,,,,,,,,,,,,,,,,,,,,,,,,,,,,,,12_ZXF,12,24,F,2022-12-01_14h50.17.264,dynamic target,2022.1.3,120.0890068277893,
0,4,2,2,T,0,42,42,42,,,,,,,None,303.3578172992093,None,302.36699521845003,303.3661414734379,302.8582427284946,None,1,[0.024790676923657884],[0.5252254069637274],303.3578172992093,None,[3 0 3 2 2 1 3 1],space,0,1.9121216202729556,0.002718097053730162,None,303.3828081026877,None,1,305.29784251387173,None,None,305.79741070234576,None,,,,,,,,,,,,,,,,,,,,,,,,,,,,,,,,,,,,,,,,,,,,,,,12_ZXF,12,24,F,2022-12-01_14h50.17.264,dynamic target,2022.1.3,120.0890068277893,
0,3,1,2,T,0,43,43,43,,,,,,,None,306.8298680543812,None,305.85570715070753,None,306.3302928422363,None,1,[0.009547704366923426],[0.5174150191778608],306.8298680543812,None,[3 0 3 0 1 1 3 0],space,0,2.176441653420625,0.0026263723830197705,None,306.8465324386234,None,1,309.0280032854116,None,None,309.52758622680284,None,,,,,,,,,,,,,,,,,,,,,,,,,,,,,,,,,,,,,,,,,,,,,,,12_ZXF,12,24,F,2022-12-01_14h50.17.264,dynamic target,2022.1.3,120.0890068277893,
0,8,1,0,T,0,44,44,44,,,,,,,None,310.56003524023436,None,309.5775453515962,None,310.06045746236305,None,1,[0.008609611140855122],[0.5174400349969801],310.56003524023436,None,[3 0 0 1 2 2 0 0],space,0,1.982275599053537,0.00259173509584798,None,310.57668743728027,None,1,312.5583399374027,None,None,313.05792480308827,None,,,,,,,,,,,,,,,,,,,,,,,,,,,,,,,,,,,,,,,,,,,,,,,12_ZXF,12,24,F,2022-12-01_14h50.17.264,dynamic target,2022.1.3,120.0890068277893,
0,7,2,2,T,0,45,45,45,,,,,,,None,314.09037317508773,None,313.1162520401522,None,313.59079668008053,None,1,[0.008730200219360995],[0.5170461962006812],314.09037317508773,None,[1 0 2 2 3 3 1 2],space,0,1.6366057251234452,0.0029547851881943643,None,314.1070247307034,None,1,315.7472994942,None,None,316.2468721726911,None,,,,,,,,,,,,,,,,,,,,,,,,,,,,,,,,,,,,,,,,,,,,,,,12_ZXF,12,24,F,2022-12-01_14h50.17.264,dynamic target,2022.1.3,120.0890068277893,
0,6,2,2,T,0,46,46,46,,,,,,,None,317.27933244324066,None,316.29684733326576,None,316.7714532298796,None,1,[0.008556372347811703],[0.5164660216232733],317.27933244324066,None,[1 3 2 2 2 1 1 0],space,0,2.566671115833742,0.0027921823639189824,None,317.2876607547023,None,1,319.85214945220105,None,None,320.35172469641856,None,,,,,,,,,,,,,,,,,,,,,,,,,,,,,,,,,,,,,,,,,,,,,,,12_ZXF,12,24,F,2022-12-01_14h50.17.264,dynamic target,2022.1.3,120.0890068277893,
0,5,2,2,T,0,47,47,47,,,,,,,None,321.38418621775963,None,320.40174347432,None,320.8846049120166,None,1,[0.008588764625528711],[0.5176250879158033],321.38418621775963,None,[3 1 2 2 0 0 0 2],space,0,2.6935003575326846,0.002383911363722291,None,321.40086599634924,None,1,324.0985571965866,None,None,324.5981208950399,None,,,,,,,,,,,,,,,,,,,,,,,,,,,,,,,,,,,,,,,,,,,,,,,12_ZXF,12,24,F,2022-12-01_14h50.17.264,dynamic target,2022.1.3,120.0890068277893,
0,4,3,2,T,0,48,48,48,,,,,,,None,325.63056413559025,None,324.6397577698972,None,325.1310014313549,None,1,[0.009008260671180324],[0.5173274638091243],325.63056413559025,None,[0 2 3 1 1 3 1 0],space,0,2.5271640814171406,0.0025510042105452158,None,325.6472561013743,None,1,328.17841570967903,None,None,328.6779938403362,None,,,,,,,,,,,,,,,,,,,,,,,,,,,,,,,,,,,,,,,,,,,,,,,12_ZXF,12,24,F,2022-12-01_14h50.17.264,dynamic target,2022.1.3,120.0890068277893,
0,3,4,2,T,0,49,49,49,,,,,,,None,329.71044477806026,None,328.7196307151935,None,329.2108689244833,None,1,[0.008657397771457909],[0.5179082798204035],329.71044477806026,None,[0 3 1 0 1 0 2 3],space,0,2.2546767039839324,0.0021116237912792712,None,329.72710852086857,None,1,331.9835181029539,None,None,332.48309398860346,None,,,,,,,,,,,,,,,,,,,,,,,,,,,,,,,,,,,,,,,,,,,,,,,12_ZXF,12,24,F,2022-12-01_14h50.17.264,dynamic target,2022.1.3,120.0890068277893,
0,1,4,0,T,0,50,50,50,,,,,,,None,333.5155641692654,None,332.5247324670381,None,333.0159799770827,None,1,[0.008661567073431797],[0.5177508084434521],333.5155641692654,None,[1 3 1 1 1 2 0 1],space,0,4.2746242541488755,0.002367234150369768,None,333.53221219700754,None,1,337.8119063754093,None,None,338.31149637254583,None,,,,,,,,,,,,,,,,,,,,,,,,,,,,,,,,,,,,,,,,,,,,,,,12_ZXF,12,24,F,2022-12-01_14h50.17.264,dynamic target,2022.1.3,120.0890068277893,
0,8,1,2,T,0,51,51,51,,,,,,,None,339.34393704736976,None,338.36149109677353,339.3605953380138,338.8443611937928,None,2,"[0.0093976094503887, 0.7506323710476863]","[0.5174948773692449, 1.2582851271017716]",339.34393704736976,None,[2 3 2 1 2 0 3 0],space,0,3.9118708206478914,0.002765242250461597,None,340.10163157663555,None,1,344.0150040394128,None,None,344.5145555506735,None,,,,,,,,,,,,,,,,,,,,,,,,,,,,,,,,,,,,,,,,,,,,,,,12_ZXF,12,24,F,2022-12-01_14h50.17.264,dynamic target,2022.1.3,120.0890068277893,
0,7,2,2,T,0,52,52,52,,,,,,,None,345.5470074505447,None,344.5645236555047,None,345.04742871052804,None,1,[0.00944507536405581],[0.5176401615517534],345.5470074505447,None,[1 1 2 0 0 0 2 3],space,0,9.473133760320707,0.0025064247365662595,None,345.5636609304547,None,0,355.047276691319,None,None,355.5468506526724,None,,,,,,,,,,,,,,,,,,,,,,,,,,,,,,,,,,,,,,,,,,,,,,,12_ZXF,12,24,F,2022-12-01_14h50.17.264,dynamic target,2022.1.3,120.0890068277893,
0,6,4,2,T,0,53,53,53,,,,,,,None,356.5793173054626,None,355.59681715392435,None,356.0797366411516,None,1,[0.008668943533848505],[0.51738038188887],356.5793173054626,None,[1 2 3 3 1 3 1 2],space,0,2.664908238219141,0.002220346392277861,None,356.5959662953537,None,1,359.2686923493602,None,None,359.76826053783424,None,,,,,,,,,,,,,,,,,,,,,,,,,,,,,,,,,,,,,,,,,,,,,,,12_ZXF,12,24,F,2022-12-01_14h50.17.264,dynamic target,2022.1.3,120.0890068277893,
0,1,1,0,T,0,54,54,54,,,,,,,None,360.8007454714152,None,359.8266134321475,360.8256888089818,360.3011356219813,None,2,"[0.00881358628430462, 0.7834191301099054]","[0.4917872744535998, 1.291692150196468]",360.8007454714152,None,[2 2 1 0 2 0 2 2],space,0,2.756559144387211,0.0026937226648442447,None,361.59172258611034,None,1,364.34771539823123,None,None,364.8472916045959,None,,,,,,,,,,,,,,,,,,,,,,,,,,,,,,,,,,,,,,,,,,,,,,,12_ZXF,12,24,F,2022-12-01_14h50.17.264,dynamic target,2022.1.3,120.0890068277893,
0,8,4,2,T,0,55,55,55,,,,,,,None,365.8797463909068,None,364.89724912581005,None,365.38017663092796,None,1,[0.009406910203324514],[0.5173297088185791],365.8797463909068,None,[2 1 2 3 3 2 1 1],space,0,1.923790217113492,0.0027277185217826627,None,365.8964014743942,None,1,367.8197677569824,None,None,368.3193439633471,None,,,,,,,,,,,,,,,,,,,,,,,,,,,,,,,,,,,,,,,,,,,,,,,12_ZXF,12,24,F,2022-12-01_14h50.17.264,dynamic target,2022.1.3,120.0890068277893,
0,1,4,1,T,0,56,56,56,,,,,,,None,369.35180452253917,None,368.3776920469263,369.3767911567156,368.852237649,None,1,[0.10809463805162522],[0.6082121803301561],369.35180452253917,None,[3 0 3 1 0 1 0 0],space,0,4.136898057422513,0.00299134677152324,None,369.46004348262613,None,1,373.59819623114345,None,None,374.09778045539696,None,,,,,,,,,,,,,,,,,,,,,,,,,,,,,,,,,,,,,,,,,,,,,,,12_ZXF,12,24,F,2022-12-01_14h50.17.264,dynamic target,2022.1.3,120.0890068277893,
0,8,2,2,T,0,57,57,57,,,,,,,None,375.13022914811154,None,374.156118596793,None,374.63065425668174,None,1,[0.008662208505484159],[0.5172536992158712],375.13022914811154,None,[0 3 2 0 2 0 3 2],space,0,2.5138126896563335,0.0028425347172742477,None,375.1468803830121,None,1,377.6614144136656,None,None,378.16098997859825,None,,,,,,,,,,,,,,,,,,,,,,,,,,,,,,,,,,,,,,,,,,,,,,,12_ZXF,12,24,F,2022-12-01_14h50.17.264,dynamic target,2022.1.3,120.0890068277893,
0,7,1,2,T,0,58,58,58,,,,,,,None,379.1934467212761,None,378.2192998970186,None,378.6855466613979,None,1,[0.009394723008881556],[0.5165378619240073],379.1934467212761,None,[3 0 2 3 1 0 3 0],space,0,1.14687584145031,0.003081467864831211,None,379.20177727774717,None,1,380.35079972046515,None,None,380.8503582874693,None,,,,,,,,,,,,,,,,,,,,,,,,,,,,,,,,,,,,,,,,,,,,,,,12_ZXF,12,24,F,2022-12-01_14h50.17.264,dynamic target,2022.1.3,120.0890068277893,
0,6,3,2,T,0,59,59,59,,,,,,,None,381.8828287888464,None,380.9087236896921,None,381.38325614242603,None,1,[0.008568238825318986],[0.516946132922385],381.8828287888464,None,[0 2 3 1 1 2 3 1],space,0,3.233077147599033,0.003045868426852394,None,381.8994912487924,None,1,385.13007648747225,None,space,385.6379733081212,None,14.266387635287174,,,,,,,,,,,,,,,,,,,,,,,,,,,,,,,,,,,,,,,,,,,,,,12_ZXF,12,24,F,2022-12-01_14h50.17.264,dynamic target,2022.1.3,120.0890068277893,
0,5,1,2,T,0,60,60,60,,,,,,,None,400.9499805485975,None,399.9674807177744,400.9666324249283,400.45040469502055,None,1,[0.08275970669819799],[0.5832059825006581],400.9499805485975,None,[1 0 0 3 0 1 0 1],space,0,3.218255274663534,0.0027302842481731204,None,401.0332412131138,None,1,404.25551189903126,None,None,404.7550961232866,None,,,,,,,,,,,,,,,,,,,,,,,,,,,,,,,,,,,,,,,,,,,,,,,12_ZXF,12,24,F,2022-12-01_14h50.17.264,dynamic target,2022.1.3,120.0890068277893,
0,2,4,0,T,0,61,61,61,,,,,,,None,405.7792142274593,None,404.78839599528874,None,405.2796345252955,None,1,[0.008630457658000523],[0.5178412502518768],405.7792142274593,None,[3 2 3 2 3 2 0 1],space,0,1.6551122999553627,0.0023890428128652275,None,405.7958680280826,None,1,407.4527844050099,None,None,407.9523686292652,None,,,,,,,,,,,,,,,,,,,,,,,,,,,,,,,,,,,,,,,,,,,,,,,12_ZXF,12,24,F,2022-12-01_14h50.17.264,dynamic target,2022.1.3,120.0890068277893,
0,1,4,2,T,0,62,62,62,,,,,,,None,408.98482822631195,None,408.00231011469805,409.0014724054672,408.48524884486324,None,1,[0.12488602568191709],[0.6332953499113501],408.98482822631195,None,[3 3 0 3 3 1 3 2],space,0,1.9809022947174526,0.0030814678630122216,None,409.118046123398,None,1,411.0996979820902,None,None,411.5992745091682,None,,,,,,,,,,,,,,,,,,,,,,,,,,,,,,,,,,,,,,,,,,,,,,,12_ZXF,12,24,F,2022-12-01_14h50.17.264,dynamic target,2022.1.3,120.0890068277893,
0,8,4,2,T,0,63,63,63,,,,,,,None,412.6317523870057,None,411.6492791755809,None,412.1321630633738,None,1,[0.009503445608061156],[0.5175468333018216],412.6317523870057,None,[3 3 1 0 3 0 3 0],space,0,0.9775963579832023,0.0024150207809725543,None,412.64838341682116,None,1,413.6308893412406,None,None,414.1304629818789,None,,,,,,,,,,,,,,,,,,,,,,,,,,,,,,,,,,,,,,,,,,,,,,,12_ZXF,12,24,F,2022-12-01_14h50.17.264,dynamic target,2022.1.3,120.0890068277893,
0,7,4,2,T,0,64,64,64,,,,,,,None,415.1629161646142,None,414.18880112327497,415.1878928566057,414.6633396696052,None,2,"[0.007841176488000201, 0.8242378914619621]","[0.3824472976029938, 1.3326879465766979]",415.1629161646142,None,[1 0 1 1 1 3 0 2],space,0,1.5506324477919406,0.0026481810473342193,None,415.99554846702813,None,1,417.5442274874458,None,None,418.0438078631143,None,,,,,,,,,,,,,,,,,,,,,,,,,,,,,,,,,,,,,,,,,,,,,,,12_ZXF,12,24,F,2022-12-01_14h50.17.264,dynamic target,2022.1.3,120.0890068277893,
0,6,2,2,T,0,65,65,65,,,,,,,None,419.0679247164955,None,418.0771083765467,None,418.5683696773631,None,1,[0.008648097016703105],[0.5088275374127988],419.0679247164955,None,[3 1 0 3 1 3 0 0],space,0,2.3418812086274556,0.002770373701423523,None,419.0762613665629,None,1,421.4159402724872,None,None,421.9155155167029,None,,,,,,,,,,,,,,,,,,,,,,,,,,,,,,,,,,,,,,,,,,,,,,,12_ZXF,12,24,F,2022-12-01_14h50.17.264,dynamic target,2022.1.3,120.0890068277893,
0,1,2,0,T,0,66,66,66,,,,,,,None,422.9479789623383,None,421.97386071384244,None,422.44839861874243,None,1,[0.008616025454102783],[0.517463447238697],422.9479789623383,None,[1 1 3 2 0 2 2 2],space,0,2.4376494620773883,0.0025817929090408143,None,422.9646263486502,None,1,425.40422228543866,None,None,425.9038142068695,None,,,,,,,,,,,,,,,,,,,,,,,,,,,,,,,,,,,,,,,,,,,,,,,12_ZXF,12,24,F,2022-12-01_14h50.17.264,dynamic target,2022.1.3,120.0890068277893,
0,6,2,0,T,0,67,67,67,,,,,,,None,426.9362645031615,None,425.945436970238,None,426.4366793488316,None,1,[0.008596461799243116],[0.5175567754849908],426.9362645031615,None,[2 1 2 0 2 1 2 3],space,0,2.112675688598756,0.0024804467684589326,None,426.95291413448285,None,1,429.06778741813287,None,None,429.5673584930466,None,,,,,,,,,,,,,,,,,,,,,,,,,,,,,,,,,,,,,,,,,,,,,,,12_ZXF,12,24,F,2022-12-01_14h50.17.264,dynamic target,2022.1.3,120.0890068277893,
0,5,4,2,T,0,68,68,68,,,,,,,None,430.5998116757819,None,429.61739619316904,None,430.10024800939937,None,1,[0.008643927714729216],[0.5176119385760103],430.5998116757819,None,[1 0 3 2 3 0 2 3],space,0,2.625919800981137,0.0023451047727576224,None,430.61647349429586,None,1,433.2475639242384,None,None,433.74713980988616,None,,,,,,,,,,,,,,,,,,,,,,,,,,,,,,,,,,,,,,,,,,,,,,,12_ZXF,12,24,F,2022-12-01_14h50.17.264,dynamic target,2022.1.3,120.0890068277893,
0,4,2,2,T,0,69,69,69,,,,,,,None,434.779606494749,None,433.8054429932781,None,434.2800216290616,None,1,[0.008724427338165697],[0.5089920645332313],434.779606494749,None,[3 3 2 3 1 2 3 3],space,0,2.3422182807571517,0.0025872450751194265,None,434.78790914895944,None,1,437.12760537352733,None,None,437.6271799763128,None,,,,,,,,,,,,,,,,,,,,,,,,,,,,,,,,,,,,,,,,,,,,,,,12_ZXF,12,24,F,2022-12-01_14h50.17.264,dynamic target,2022.1.3,120.0890068277893,
0,5,3,1,T,0,70,70,70,,,,,,,None,438.6596642684617,None,437.66881877546257,None,438.16007558626006,None,1,[0.008883502292519552],[0.5177180954487994],438.6596642684617,None,[0 1 2 2 3 2 3 2],space,0,2.2293154739491,0.002446130198222818,None,438.6763058818924,None,1,440.9077310748107,None,None,441.40730471545083,None,,,,,,,,,,,,,,,,,,,,,,,,,,,,,,,,,,,,,,,,,,,,,,,12_ZXF,12,24,F,2022-12-01_14h50.17.264,dynamic target,2022.1.3,120.0890068277893,
0,4,4,2,T,0,71,71,71,,,,,,,None,442.4397604639089,None,441.44894255245345,None,441.9401858931942,None,1,[0.00912371830054326],[0.517424961362849],442.4397604639089,None,[1 1 1 1 2 1 1 2],space,0,2.016477676199429,0.002502896863006754,None,442.4564155473963,None,1,444.47135865083874,None,None,444.97097045663776,None,,,,,,,,,,,,,,,,,,,,,,,,,,,,,,,,,,,,,,,,,,,,,,,12_ZXF,12,24,F,2022-12-01_14h50.17.264,dynamic target,2022.1.3,120.0890068277893,
0,3,1,2,T,0,72,72,72,,,,,,,None,446.0033745698802,None,445.01257878780416,None,445.5038320707299,None,1,[0.008626609069324331],[0.5178932061844534],446.0033745698802,None,[0 3 2 1 0 3 1 1],space,0,1.3007802175197867,0.002059988575638272,None,446.02005627276594,None,1,447.3189664489764,None,None,447.8185134702164,None,,,,,,,,,,,,,,,,,,,,,,,,,,,,,,,,,,,,,,,,,,,,,,,12_ZXF,12,24,F,2022-12-01_14h50.17.264,dynamic target,2022.1.3,120.0890068277893,
0,2,1,2,T,0,73,73,73,,,,,,,None,448.8509858958896,None,447.8685024215629,448.8676522044225,448.35141036302775,None,17,"[0.04188161295678583, 0.05962712959262717, 0.25063092782875174, 0.29172710820057546, 0.40048979691346176, 0.5589175462573621, 0.5754651900078898, 0.6252646304874361, 0.6508333635356394, 0.7169751897599781, 0.7670507663988246, 0.8251939447618497, 0.8417771879467182, 0.8668526603523787, 0.9003905354256858, 0.9331686351670214, 0.9668056113696366]","[0.05019392070789763, 0.06702283206686843, 0.2584198276672396, 0.3004621191557817, 0.4166063988541282, 0.5671560894134018, 0.5836129706385691, 0.6334092039614916, 0.7006372940340952, 0.7506413510855054, 0.8170448812670656, 0.8332589807596378, 0.8504150220651354, 0.8832947886603506, 0.916858641699946, 0.9586533407200477, 1.474455160267098]",448.8509858958896,None,[2 2 1 2 1 0 3 3],space,0,3.1605720025181654,0.0030433027022809256,None,449.8251689289409,None,1,452.98914537943347,None,None,453.48871581291695,None,,,,,,,,,,,,,,,,,,,,,,,,,,,,,,,,,,,,,,,,,,,,,,,12_ZXF,12,24,F,2022-12-01_14h50.17.264,dynamic target,2022.1.3,120.0890068277893,
0,1,2,2,T,0,74,74,74,,,,,,,None,454.52115777060317,None,453.5387384394053,None,454.0215966699452,None,1,[0.009344049938590615],[0.5174467700235255],454.52115777060317,None,[1 3 2 2 2 0 2 3],space,0,2.591526577316472,0.0026055258640553802,None,454.53781926840384,None,1,457.1272984486659,None,None,457.6268679200022,None,,,,,,,,,,,,,,,,,,,,,,,,,,,,,,,,,,,,,,,,,,,,,,,12_ZXF,12,24,F,2022-12-01_14h50.17.264,dynamic target,2022.1.3,120.0890068277893,
0,8,1,2,T,0,75,75,75,,,,,,,None,458.6593255927546,None,457.68521440000404,None,458.1597577570683,None,1,[0.008482607752739568],[0.5179714608002541],458.6593255927546,None,[1 0 1 3 2 0 3 3],space,0,1.0768748440259515,0.002065761455014581,None,458.6759922220044,None,1,459.7500730429856,None,None,460.249642193605,None,,,,,,,,,,,,,,,,,,,,,,,,,,,,,,,,,,,,,,,,,,,,,,,12_ZXF,12,24,F,2022-12-01_14h50.17.264,dynamic target,2022.1.3,120.0890068277893,
0,7,4,2,T,0,76,76,76,,,,,,,None,461.2821072428178,None,460.2996090155739,None,460.78252433349735,None,1,[0.0077709397628495935],[0.5163479982693389],461.2821072428178,None,[2 1 1 3 2 2 2 2],space,0,1.0948618595321022,0.0029653688052349025,None,461.29875270483535,None,1,462.39781823569865,None,None,462.8973870656029,None,,,,,,,,,,,,,,,,,,,,,,,,,,,,,,,,,,,,,,,,,,,,,,,12_ZXF,12,24,F,2022-12-01_14h50.17.264,dynamic target,2022.1.3,120.0890068277893,
0,6,3,2,T,0,77,77,77,,,,,,,None,463.9298402483364,None,462.9557386770539,None,463.43028075125767,None,1,[0.009592925269316765],[0.5176379165404796],463.9298402483364,None,[0 3 2 3 3 3 3 1],space,0,2.2699081307800952,0.002483333211785066,None,463.9465068775862,None,1,466.219562242406,None,None,466.7191499945313,None,,,,,,,,,,,,,,,,,,,,,,,,,,,,,,,,,,,,,,,,,,,,,,,12_ZXF,12,24,F,2022-12-01_14h50.17.264,dynamic target,2022.1.3,120.0890068277893,
0,7,4,1,T,0,78,78,78,,,,,,,None,467.75160702585345,None,466.77748813592734,None,467.25203213442364,None,1,[0.00865643562428886],[0.5172565856555593],467.75160702585345,None,[3 2 3 1 0 0 3 0],space,0,7.696461845678641,0.0028595326457434567,None,467.7682640336352,None,1,475.46171633536323,None,None,475.9613056910677,None,,,,,,,,,,,,,,,,,,,,,,,,,,,,,,,,,,,,,,,,,,,,,,,12_ZXF,12,24,F,2022-12-01_14h50.17.264,dynamic target,2022.1.3,120.0890068277893,
0,6,3,2,T,0,79,79,79,,,,,,,None,476.9937620809578,None,476.0112638537121,477.01043480380395,476.49417917163737,None,2,"[0.009343087791421567, 0.20832180093384522]","[0.05063971543495427, 0.7086734656240878]",476.9937620809578,None,[0 3 1 0 2 0 2 3],space,0,3.4301498477379937,0.0027764672977355076,None,477.2019273726619,None,1,480.63234057947557,None,None,481.131920313712,None,,,,,,,,,,,,,,,,,,,,,,,,,,,,,,,,,,,,,,,,,,,,,,,12_ZXF,12,24,F,2022-12-01_14h50.17.264,dynamic target,2022.1.3,120.0890068277893,
0,5,1,2,T,0,80,80,80,,,,,,,None,482.1643738492332,None,481.18187398633927,None,481.6564692993361,None,1,[0.009016278563649394],[0.5165022624878475],482.1643738492332,None,[1 2 1 3 1 0 1 3],space,0,1.8825923698841507,0.0026828183345060097,None,482.1727031228402,None,1,484.054441157823,None,None,484.55401094987263,None,,,,,,,,,,,,,,,,,,,,,,,,,,,,,,,,,,,,,,,,,,,,,,,12_ZXF,12,24,F,2022-12-01_14h50.17.264,dynamic target,2022.1.3,120.0890068277893,
0,4,2,2,T,0,81,81,81,,,,,,,None,485.58648337554587,None,484.61234267695545,None,485.08691265341804,None,1,[0.009374517923788517],[0.5175086681410903],485.58648337554587,None,[3 2 2 1 1 3 2 2],space,0,2.4518408080784866,0.002470504587108735,None,485.60312338539734,None,1,488.05936991565613,None,None,488.55894419772466,None,,,,,,,,,,,,,,,,,,,,,,,,,,,,,,,,,,,,,,,,,,,,,,,12_ZXF,12,24,F,2022-12-01_14h50.17.264,dynamic target,2022.1.3,120.0890068277893,
0,3,3,2,T,0,82,82,82,,,,,,,None,489.59140315334116,None,488.6005820347291,None,489.09183114835105,None,1,[0.00863879626376729],[0.5175638312302908],489.59140315334116,None,[2 3 1 3 2 2 2 3],space,0,3.327349904055154,0.0025346477104903897,None,489.6080659340023,None,1,492.9385605063726,None,None,493.4381360713052,None,,,,,,,,,,,,,,,,,,,,,,,,,,,,,,,,,,,,,,,,,,,,,,,12_ZXF,12,24,F,2022-12-01_14h50.17.264,dynamic target,2022.1.3,120.0890068277893,
0,2,4,2,T,0,83,83,83,,,,,,,None,494.47059246119534,None,493.49645817691817,None,493.9710169283335,None,1,[0.008573690991397598],[0.5172646035462094],494.47059246119534,None,[0 2 2 3 0 1 3 1],space,0,2.1442552740209067,0.0027213042085350025,None,494.4872369610657,None,1,496.6354306745907,None,None,497.1349985423478,None,,,,,,,,,,,,,,,,,,,,,,,,,,,,,,,,,,,,,,,,,,,,,,,12_ZXF,12,24,F,2022-12-01_14h50.17.264,dynamic target,2022.1.3,120.0890068277893,
0,1,1,2,T,0,84,84,84,,,,,,,None,498.16745557366994,None,497.1932795963603,None,497.6678803615232,None,1,[0.008597423948231153],[0.5171433730374702],498.16745557366994,None,[1 1 0 3 1 2 1 1],space,0,4.142521806032164,0.002815273888700176,None,498.1841215614877,None,1,502.3305933527845,None,None,502.8301641069813,None,,,,,,,,,,,,,,,,,,,,,,,,,,,,,,,,,,,,,,,,,,,,,,,12_ZXF,12,24,F,2022-12-01_14h50.17.264,dynamic target,2022.1.3,120.0890068277893,
0,8,1,2,T,0,85,85,85,,,,,,,None,503.85429632264277,None,502.88850962483593,None,503.3547179033412,None,1,[0.008636551254312508],[0.5174666543935018],503.85429632264277,None,[0 2 2 0 1 2 0 2],space,0,3.0313338657088025,0.0025644742636359297,None,503.8709472368264,None,1,506.9017089973895,None,None,507.4013089367092,None,,,,,,,,,,,,,,,,,,,,,,,,,,,,,,,,,,,,,,,,,,,,,,,12_ZXF,12,24,F,2022-12-01_14h50.17.264,dynamic target,2022.1.3,120.0890068277893,
0,7,3,2,T,0,86,86,86,,,,,,,None,508.4337415936425,None,507.4512411213891,None,507.93417087151647,None,1,[0.024843595005222596],[0.5249742866253655],508.4337415936425,None,[0 0 1 2 3 2 1 3],space,0,0.9240705225747661,0.002949012306999066,None,508.45872117207546,None,1,509.3829341439323,None,None,509.88250874671775,None,,,,,,,,,,,,,,,,,,,,,,,,,,,,,,,,,,,,,,,,,,,,,,,12_ZXF,12,24,F,2022-12-01_14h50.17.264,dynamic target,2022.1.3,120.0890068277893,
0,6,3,2,T,0,87,87,87,,,,,,,None,510.91496802304755,None,509.94084336024025,None,510.41539120732523,None,1,[0.008713202290891786],[0.5172399084422068],510.91496802304755,None,[3 2 1 0 0 1 2 3],space,0,3.554691424831617,0.0028867934761365177,None,510.9316205408104,None,1,514.4869348469401,None,None,514.9865251647918,None,,,,,,,,,,,,,,,,,,,,,,,,,,,,,,,,,,,,,,,,,,,,,,,12_ZXF,12,24,F,2022-12-01_14h50.17.264,dynamic target,2022.1.3,120.0890068277893,
0,7,3,1,T,0,88,88,88,,,,,,,None,516.0189613495968,None,515.0365153990006,None,515.5193906274708,None,1,[0.008623081197583815],[0.517107132169258],516.0189613495968,None,[2 3 1 0 0 1 2 1],space,0,1.4745439469552366,0.002982046016768436,None,516.0356202816711,None,1,517.5093749989974,None,None,518.0089377353054,None,,,,,,,,,,,,,,,,,,,,,,,,,,,,,,,,,,,,,,,,,,,,,,,12_ZXF,12,24,F,2022-12-01_14h50.17.264,dynamic target,2022.1.3,120.0890068277893,
0,6,4,2,T,0,89,89,89,,,,,,,None,519.0414056709578,None,518.0589680589692,None,518.5418509846131,None,1,[0.00865803920351027],[0.5170272739778738],519.0414056709578,None,[1 2 0 3 1 3 1 0],space,0,2.740658704780799,0.0031119358500291128,None,519.0580553022792,None,1,521.7974032938146,None,None,522.2969689165623,None,,,,,,,,,,,,,,,,,,,,,,,,,,,,,,,,,,,,,,,,,,,,,,,12_ZXF,12,24,F,2022-12-01_14h50.17.264,dynamic target,2022.1.3,120.0890068277893,
0,5,3,2,T,0,90,90,90,,,,,,,None,523.3294554537206,None,522.3552836457166,None,522.8298757515568,None,1,[0.008551882327083149],[0.5174387521328754],523.3294554537206,None,[0 3 3 3 2 1 3 0],space,0,2.0829950604311307,0.0026950055253109895,None,523.3460977085833,None,1,525.4276457516244,None,None,525.9272283723005,None,,,,,,,,,,,,,,,,,,,,,,,,,,,,,,,,,,,,,,,,,,,,,,,12_ZXF,12,24,F,2022-12-01_14h50.17.264,dynamic target,2022.1.3,120.0890068277893,
0,4,2,2,T,0,91,91,91,,,,,,,None,526.9513596258148,None,525.9605269614403,526.9596799514566,526.4517760750623,None,2,"[0.009633976869736216, 0.8090289147585281]","[0.38323561662582506, 1.316258005463169]",526.9513596258148,None,[1 0 1 2 1 0 3 2],space,0,3.695094314221933,0.0030622249250882305,None,527.7673269025581,None,1,531.4641880907384,None,None,531.9637723149938,None,,,,,,,,,,,,,,,,,,,,,,,,,,,,,,,,,,,,,,,,,,,,,,,12_ZXF,12,24,F,2022-12-01_14h50.17.264,dynamic target,2022.1.3,120.0890068277893,
0,3,1,2,T,0,92,92,92,,,,,,,None,532.9962168384045,None,532.0138077701067,None,532.4966499648654,None,1,[0.009004732799439807],[0.5174926323597902],532.9962168384045,None,[1 3 0 3 2 0 1 2],space,0,2.000277367480521,0.002332276146262302,None,533.0128776947731,None,1,535.0111785433546,None,None,535.5107515425627,None,,,,,,,,,,,,,,,,,,,,,,,,,,,,,,,,,,,,,,,,,,,,,,,12_ZXF,12,24,F,2022-12-01_14h50.17.264,dynamic target,2022.1.3,120.0890068277893,
0,2,4,2,T,0,93,93,93,,,,,,,None,536.5432098567471,None,535.5523864931256,None,536.0436407381985,None,1,[0.008631099090052885],[0.5177046253938897],536.5432098567471,None,[3 2 0 3 1 3 3 1],space,0,6.997494838657076,0.0024833332136040553,None,536.5598639780856,None,1,543.5622661381694,None,None,544.0618320816341,None,,,,,,,,,,,,,,,,,,,,,,,,,,,,,,,,,,,,,,,,,,,,,,,12_ZXF,12,24,F,2022-12-01_14h50.17.264,dynamic target,2022.1.3,120.0890068277893,
0,1,3,2,T,0,94,94,94,,,,,,,None,545.0942823779278,None,544.1117847921141,None,544.5947078072131,None,1,[0.009884776496619452],[0.5177245097620471],545.0942823779278,None,[2 3 1 0 2 2 3 0],space,0,3.486048658107393,0.0024419608926109504,None,545.1109826823176,None,1,548.5996471486615,None,None,549.0992156578507,None,,,,,,,,,,,,,,,,,,,,,,,,,,,,,,,,,,,,,,,,,,,,,,,12_ZXF,12,24,F,2022-12-01_14h50.17.264,dynamic target,2022.1.3,120.0890068277893,
0,5,3,0,T,0,95,95,95,,,,,,,None,550.131673330603,None,549.1408496462664,None,549.632097797743,None,1,[0.008698770086994045],[0.5174987259579211],550.131673330603,None,[0 2 2 3 1 2 2 3],space,0,2.1281527835672023,0.0025789064675336704,None,550.148326810513,None,1,552.2798513290618,None,None,552.7794477405098,None,,,,,,,,,,,,,,,,,,,,,,,,,,,,,,,,,,,,,,,,,,,,,,,12_ZXF,12,24,F,2022-12-01_14h50.17.264,dynamic target,2022.1.3,120.0890068277893,
0,6,4,1,T,0,96,96,96,,,,,,,None,553.8118836045996,None,552.8377685632622,None,553.3123192967869,None,1,[0.008640079127872013],[0.5173633839604008],553.8118836045996,None,[2 0 2 2 2 2 0 0],space,0,3.3599965103858267,0.002713607033001608,None,553.8285361223625,None,1,557.1923469553021,None,None,557.6919167473536,None,,,,,,,,,,,,,,,,,,,,,,,,,,,,,,,,,,,,,,,,,,,,,,,12_ZXF,12,24,F,2022-12-01_14h50.17.264,dynamic target,2022.1.3,120.0890068277893,
0,7,1,1,T,0,97,97,97,,,,,,,None,558.7243795836278,None,557.75026579308,None,558.2164836930533,None,1,[0.008636551256131497],[0.5164823781196901],558.7243795836278,None,[1 0 1 1 3 0 2 1],space,0,0.9040504906752176,0.0031767204072821187,None,558.732725855165,None,1,559.6402927235722,None,None,560.139829802629,None,,,,,,,,,,,,,,,,,,,,,,,,,,,,,,,,,,,,,,,,,,,,,,,12_ZXF,12,24,F,2022-12-01_14h50.17.264,dynamic target,2022.1.3,120.0890068277893,
0,6,1,2,T,0,98,98,98,,,,,,,None,561.1722987004287,None,560.1898030389093,None,560.6727250918611,None,1,[0.0077738262043567374],[0.5167501756714046],561.1722987004287,None,[2 2 1 3 0 2 0 2],space,0,3.2955621741857613,0.0024907096703827847,None,561.1889541046312,None,0,564.4861539043759,None,None,564.9857285071614,None,,,,,,,,,,,,,,,,,,,,,,,,,,,,,,,,,,,,,,,,,,,,,,,12_ZXF,12,24,F,2022-12-01_14h50.17.264,dynamic target,2022.1.3,120.0890068277893,
0,5,2,2,T,0,99,99,99,,,,,,,None,566.0181848970515,None,565.044074025016,None,565.5186122506311,None,1,[0.00870807084174885],[0.5171459387620416],566.0181848970515,None,[3 1 3 2 1 2 1 2],space,0,2.0969397761127766,0.0024409987454419024,None,566.0348473569993,None,1,568.1330588221335,None,None,568.6326411220946,None,,,,,,,,,,,,,,,,,,,,,,,,,,,,,,,,,,,,,,,,,,,,,,,12_ZXF,12,24,F,2022-12-01_14h50.17.264,dynamic target,2022.1.3,120.0890068277893,
0,4,2,2,T,0,100,100,100,,,,,,,None,569.6650910976714,None,568.6742648476102,569.6734149511849,569.1655139612321,None,1,[0.1590124139402178],[0.6667267473949323],569.6650910976714,None,[0 1 0 3 1 2 1 3],space,0,1.7403460070399888,0.002809180290569202,None,569.8316175581549,None,1,571.5718045417834,None,None,572.071378823852,None,,,,,,,,,,,,,,,,,,,,,,,,,,,,,,,,,,,,,,,,,,,,,,,12_ZXF,12,24,F,2022-12-01_14h50.17.264,dynamic target,2022.1.3,120.0890068277893,
0,3,3,2,T,0,101,101,101,,,,,,,None,573.1038387416156,None,572.1213982431836,None,572.6042616051764,None,1,[0.009545780070766341],[0.5176994939411088],573.1038387416156,None,[2 2 2 3 3 2 2 3],space,0,1.9874442521795572,0.0025138011969829677,None,573.1205169166278,None,1,575.1104679337295,None,None,575.610046705817,None,,,,,,,,,,,,,,,,,,,,,,,,,,,,,,,,,,,,,,,,,,,,,,,12_ZXF,12,24,F,2022-12-01_14h50.17.264,dynamic target,2022.1.3,120.0890068277893,
0,2,3,2,T,0,102,102,102,,,,,,,None,576.6425008506976,None,575.6600629179939,576.6591524063133,576.1429233935432,None,1,[0.041887706553097814],[0.541933087815778],576.6425008506976,None,[0 0 1 2 0 1 1 2],space,0,1.511420151040511,0.0028332339661574224,None,576.6841323054614,None,1,578.199511101091,None,None,578.6990866660237,None,,,,,,,,,,,,,,,,,,,,,,,,,,,,,,,,,,,,,,,,,,,,,,,12_ZXF,12,24,F,2022-12-01_14h50.17.264,dynamic target,2022.1.3,120.0890068277893,
0,1,4,2,T,0,103,103,103,,,,,,,None,579.731543697344,None,578.7491102546574,None,579.2319662401896,None,1,[0.007729567449132446],[0.5165699334884266],579.731543697344,None,[2 3 0 0 0 2 1 0],space,0,2.430995895574597,0.0026205995000054827,None,579.7482003844107,None,1,582.1794641290799,None,None,582.6790400147277,None,,,,,,,,,,,,,,,,,,,,,,,,,,,,,,,,,,,,,,,,,,,,,,,12_ZXF,12,24,F,2022-12-01_14h50.17.264,dynamic target,2022.1.3,120.0890068277893,
0,8,3,2,T,0,104,104,104,,,,,,,None,583.71149768748,None,582.7206791345943,None,583.2119388318315,None,1,[0.009289528281442472],[0.517618352887439],583.71149768748,None,[1 0 3 0 2 0 3 3],space,0,1.459399434093939,0.0026449738870724104,None,583.7281518088203,None,1,585.1852488769346,None,None,585.6848218761427,None,,,,,,,,,,,,,,,,,,,,,,,,,,,,,,,,,,,,,,,,,,,,,,,12_ZXF,12,24,F,2022-12-01_14h50.17.264,dynamic target,2022.1.3,120.0890068277893,
0,7,3,2,T,0,105,105,105,,,,,,,None,586.7089390181682,None,585.7181531782753,None,586.2093779175102,None,1,[0.008609290427557426],[0.5175362496866001],586.7089390181682,None,[0 2 0 3 1 0 1 3],space,0,5.549211677544008,0.0027318878255755408,None,586.7256075717123,None,1,592.2792313857444,None,None,592.7788005363657,None,,,,,,,,,,,,,,,,,,,,,,,,,,,,,,,,,,,,,,,,,,,,,,,12_ZXF,12,24,F,2022-12-01_14h50.17.264,dynamic target,2022.1.3,120.0890068277893,
0,6,1,2,T,0,106,106,106,,,,,,,None,593.8112572469709,None,592.8287647926081,None,593.3116804312467,None,1,[0.009459828283070237],[0.5175346461073786],593.8112572469709,None,[3 0 3 2 1 0 2 0],space,0,3.711108287161551,0.0027357364124327432,None,593.8279296491019,None,1,597.541423470675,None,None,598.0409993563246,None,,,,,,,,,,,,,,,,,,,,,,,,,,,,,,,,,,,,,,,,,,,,,,,12_ZXF,12,24,F,2022-12-01_14h50.17.264,dynamic target,2022.1.3,120.0890068277893,
0,5,1,2,T,0,107,107,107,,,,,,,None,599.0734557462147,None,598.0993570613718,None,598.5738808547849,None,1,[0.00863398552974104],[0.5174640886689303],599.0734557462147,None,[3 2 2 1 2 2 0 0],space,0,1.4079290651734482,0.002741188580330345,None,599.0901149990041,None,1,600.497251627392,None,None,600.9968214194434,None,,,,,,,,,,,,,,,,,,,,,,,,,,,,,,,,,,,,,,,,,,,,,,,12_ZXF,12,24,F,2022-12-01_14h50.17.264,dynamic target,2022.1.3,120.0890068277893,
0,4,2,2,T,0,108,108,108,,,,,,,None,602.0292839029298,None,601.0384611807403,602.0376096807377,601.5297051629132,None,2,"[0.009204859354213113, 0.6920591130219691]","[0.4510095647019625, 1.199963310131352]",602.0292839029298,None,[2 3 1 3 0 2 1 2],space,0,1.6580660909276048,0.002595262965769507,None,602.72870985402,None,1,604.3856214202133,None,None,604.8851886465384,None,,,,,,,,,,,,,,,,,,,,,,,,,,,,,,,,,,,,,,,,,,,,,,,12_ZXF,12,24,F,2022-12-01_14h50.17.264,dynamic target,2022.1.3,120.0890068277893,
0,5,3,1,T,0,109,109,109,,,,,,,None,605.9176309249415,None,604.935198444402,None,605.4180688621364,None,1,[0.008646493441119674],[0.5172851293464191],605.9176309249415,None,[0 2 0 2 1 0 0 0],space,0,2.516034286840295,0.0028592119306267705,None,605.9342988370536,None,1,608.4488319055617,None,None,608.9484254305682,None,,,,,,,,,,,,,,,,,,,,,,,,,,,,,,,,,,,,,,,,,,,,,,,12_ZXF,12,24,F,2022-12-01_14h50.17.264,dynamic target,2022.1.3,120.0890068277893,
0,4,4,2,T,0,110,110,110,,,,,,,None,609.9808863104772,None,608.9900433832045,None,609.4812864032283,None,1,[0.008792098335106857],[0.5177665235096356],609.9808863104772,None,[1 1 3 3 0 0 2 3],space,0,2.340988977737652,0.0022832066570117604,None,609.9975208681644,None,1,612.3371943219227,None,None,612.8367708490025,None,,,,,,,,,,,,,,,,,,,,,,,,,,,,,,,,,,,,,,,,,,,,,,,12_ZXF,12,24,F,2022-12-01_14h50.17.264,dynamic target,2022.1.3,120.0890068277893,
0,3,2,2,T,0,111,111,111,,,,,,,None,613.8692471232607,None,612.8950618452,None,613.3696510646005,None,1,[0.008662208505484159],[0.5172334941289591],613.8692471232607,None,[2 0 0 3 1 3 2 3],space,0,1.7485714008544164,0.0027867301978403702,None,613.8858816809479,None,1,615.6344178546242,None,None,616.1339623101414,None,,,,,,,,,,,,,,,,,,,,,,,,,,,,,,,,,,,,,,,,,,,,,,,12_ZXF,12,24,F,2022-12-01_14h50.17.264,dynamic target,2022.1.3,120.0890068277893,
0,2,4,2,T,0,112,112,112,,,,,,,None,617.1664248256986,None,616.1922998101054,None,616.6585247658222,None,1,[0.009326089862952358],[0.5164512687024398],617.1664248256986,None,[2 0 1 1 0 2 3 1],space,0,2.299166376458743,0.0028553633419505786,None,617.1747422328281,None,1,619.4728057197717,None,None,619.9723793604101,None,,,,,,,,,,,,,,,,,,,,,,,,,,,,,,,,,,,,,,,,,,,,,,,12_ZXF,12,24,F,2022-12-01_14h50.17.264,dynamic target,2022.1.3,120.0890068277893,
0,1,4,2,T,0,113,113,113,,,,,,,None,621.0048421646134,None,620.0307235954024,None,620.5052605381552,None,1,[0.008548354455342633],[0.5173778161642986],621.0048421646134,None,[1 2 2 2 0 0 1 3],space,0,3.4121278742259165,0.0026638961116987048,None,621.0214908337875,None,1,624.4352563335724,None,None,624.9348306156428,None,,,,,,,,,,,,,,,,,,,,,,,,,,,,,,,,,,,,,,,,,,,,,,,12_ZXF,12,24,F,2022-12-01_14h50.17.264,dynamic target,2022.1.3,120.0890068277893,
0,8,1,2,T,0,114,114,114,,,,,,,None,625.9672873583206,None,624.9847903818663,None,625.4593982027745,None,1,[0.009447961803743965],[0.5164952067443664],625.9672873583206,None,[1 0 3 2 2 0 2 3],space,0,8.634241730200301,0.0028964149441890186,None,625.9756182355068,None,1,634.6099523833509,None,None,635.1095330797327,None,,,,,,,,,,,,,,,,,,,,,,,,,,,,,,,,,,,,,,,,,,,,,,,12_ZXF,12,24,F,2022-12-01_14h50.17.264,dynamic target,2022.1.3,120.0890068277893,
0,7,1,2,T,0,115,115,115,,,,,,,None,636.1419759995661,None,635.1594864316448,None,635.6424062395872,None,1,[0.008439311141046346],[0.5172075161644898],636.1419759995661,None,[2 1 1 0 3 2 0 0],space,0,1.3302613605628721,0.0027120034537801985,None,636.1586458359725,None,1,637.4908392390444,None,None,637.9904138418299,None,,,,,,,,,,,,,,,,,,,,,,,,,,,,,,,,,,,,,,,,,,,,,,,12_ZXF,12,24,F,2022-12-01_14h50.17.264,dynamic target,2022.1.3,120.0890068277893,
0,6,3,2,T,0,116,116,116,,,,,,,None,639.0228814567672,None,638.04037681521,None,638.5233030374657,None,1,[0.008695883647305891],[0.5170150867834309],639.0228814567672,None,[2 0 3 0 2 1 3 3],space,0,3.5383169675205863,0.0031257266200555023,None,639.0395230701979,None,1,642.578187103576,None,None,643.0777912121996,None,,,,,,,,,,,,,,,,,,,,,,,,,,,,,,,,,,,,,,,,,,,,,,,12_ZXF,12,24,F,2022-12-01_14h50.17.264,dynamic target,2022.1.3,120.0890068277893,
0,5,2,2,T,0,117,117,117,,,,,,,None,644.1102123233704,None,643.1361072242162,None,643.6106476948407,None,1,[0.008657077056341222],[0.5170205389495095],644.1102123233704,None,[3 3 3 2 0 3 1 1],space,0,2.2422707819059724,0.003095579351793276,None,644.1268696518673,None,1,646.3666347340804,None,None,646.8662151097471,None,,,,,,,,,,,,,,,,,,,,,,,,,,,,,,,,,,,,,,,,,,,,,,,12_ZXF,12,24,F,2022-12-01_14h50.17.264,dynamic target,2022.1.3,120.0890068277893,
0,3,1,0,T,0,118,118,118,,,,,,,None,647.8986689339126,None,646.9161674995121,None,647.3990994946489,None,1,[0.008564069521526108],[0.5171183572165319],647.8986689339126,None,[2 1 1 0 0 1 3 1],space,0,1.8771087740078656,0.0027886544903594768,None,647.9153220931057,None,1,649.7970710324189,None,None,650.296624467974,None,,,,,,,,,,,,,,,,,,,,,,,,,,,,,,,,,,,,,,,,,,,,,,,12_ZXF,12,24,F,2022-12-01_14h50.17.264,dynamic target,2022.1.3,120.0890068277893,
0,2,1,2,T,0,119,119,119,,,,,,,None,651.3290875928924,None,650.3382722471615,None,650.8295136636079,None,1,[0.009343087793240556],[0.517412774168406],651.3290875928924,None,[1 0 2 1 2 1 3 2],space,0,1.8870987452301051,0.0026975712535204366,None,651.3457503735535,None,1,653.2358016784328,None,space,653.7437129312875,None,6.726158509625748,,,,,,,,,,,,,,,,,,,,,,,,,,,,,,,,,,,,,,,,,,,,,,12_ZXF,12,24,F,2022-12-01_14h50.17.264,dynamic target,2022.1.3,120.0890068277893,
0,1,1,2,T,0,120,120,120,,,,,,,None,661.5121277012695,None,660.537996624149,None,661.0125710906286,None,1,[0.008159967826941283],[0.5168771790631581],661.5121277012695,None,[2 3 2 2 3 3 1 2],space,0,1.9274438095926598,0.002615788769617211,None,661.5287641832474,None,1,663.4604424528734,None,None,663.9600282807062,None,,,,,,,,,,,,,,,,,,,,,,,,,,,,,,,,,,,,,,,,,,,,,,,12_ZXF,12,24,F,2022-12-01_14h50.17.264,dynamic target,2022.1.3,120.0890068277893,
0,8,3,2,T,0,121,121,121,,,,,,,None,664.9924959277143,None,664.0183853443232,None,664.4846022821475,None,1,[0.008170551442162832],[0.5158717355589033],664.9924959277143,None,[2 2 0 1 0 1 3 0],space,0,1.239009424643882,0.0029923089205112774,None,665.000808844823,None,1,666.241427351335,None,None,666.7410102927263,None,,,,,,,,,,,,,,,,,,,,,,,,,,,,,,,,,,,,,,,,,,,,,,,12_ZXF,12,24,F,2022-12-01_14h50.17.264,dynamic target,2022.1.3,120.0890068277893,
0,7,1,2,T,0,122,122,122,,,,,,,None,667.7734596589455,None,666.7993096275313,None,667.2655576747748,None,1,[0.008982282706710976],[0.5164791709612473],667.7734596589455,None,[0 0 3 3 2 3 2 1],space,0,3.8979543279419886,0.002882303459045943,None,667.7818078547753,None,1,671.678477126723,None,None,672.178053653801,None,,,,,,,,,,,,,,,,,,,,,,,,,,,,,,,,,,,,,,,,,,,,,,,12_ZXF,12,24,F,2022-12-01_14h50.17.264,dynamic target,2022.1.3,120.0890068277893,
0,6,3,2,T,0,123,123,123,,,,,,,None,673.2105174522242,None,672.2364030202443,None,672.7026090537402,None,1,[0.009516915666608838],[0.5165064317916404],673.2105174522242,None,[2 3 1 2 3 2 0 1],space,0,3.0533333544881316,0.0028903213496960234,None,673.218837104363,None,1,676.2745752361989,None,None,676.7741511218467,None,,,,,,,,,,,,,,,,,,,,,,,,,,,,,,,,,,,,,,,,,,,,,,,12_ZXF,12,24,F,2022-12-01_14h50.17.264,dynamic target,2022.1.3,120.0890068277893,
0,5,4,2,T,0,124,124,124,,,,,,,None,677.8066107188934,None,676.8157883174208,None,677.3070351860333,None,1,[0.008652907752548344],[0.5175368911186524],677.8066107188934,None,[1 2 3 2 3 2 2 3],space,0,1.2803438967312104,0.0026132230450457428,None,677.8232690095356,None,1,679.1055058214697,None,None,679.6051076850838,None,,,,,,,,,,,,,,,,,,,,,,,,,,,,,,,,,,,,,,,,,,,,,,,12_ZXF,12,24,F,2022-12-01_14h50.17.264,dynamic target,2022.1.3,120.0890068277893,
0,4,1,2,T,0,125,125,125,,,,,,,None,680.6292103949054,None,679.6383998599122,None,680.1296358241925,None,1,[0.009162204176391242],[0.5176885896107706],680.6292103949054,None,[2 0 3 0 2 3 2 0],space,0,1.224904992577649,0.0025154047762043774,None,680.6458799105967,None,1,681.8698253735456,None,None,682.369405428499,None,,,,,,,,,,,,,,,,,,,,,,,,,,,,,,,,,,,,,,,,,,,,,,,12_ZXF,12,24,F,2022-12-01_14h50.17.264,dynamic target,2022.1.3,120.0890068277893,
0,3,4,2,T,0,126,126,126,,,,,,,None,683.4018595733796,None,682.4193809097887,None,682.9022753811951,None,1,[0.008635909824079135],[0.5172992408333812],683.4018595733796,None,[1 2 3 3 2 3 3 1],space,0,1.636181739060703,0.00262637238483876,None,683.4185101668445,None,1,685.0587987211147,None,None,685.5583467045019,None,,,,,,,,,,,,,,,,,,,,,,,,,,,,,,,,,,,,,,,,,,,,,,,12_ZXF,12,24,F,2022-12-01_14h50.17.264,dynamic target,2022.1.3,120.0890068277893,
0,2,2,2,T,0,127,127,127,,,,,,,None,686.5908168851638,None,685.6083680481279,None,686.0912407108735,None,1,[0.007791144849761622],[0.5164644180440519],686.5908168851638,None,[2 1 1 0 1 2 0 3],space,0,1.6155667796629132,0.002672876147698844,None,686.6074690822134,None,1,688.2227629844128,None,None,688.7223382286304,None,,,,,,,,,,,,,,,,,,,,,,,,,,,,,,,,,,,,,,,,,,,,,,,12_ZXF,12,24,F,2022-12-01_14h50.17.264,dynamic target,2022.1.3,120.0890068277893,
0,1,3,2,T,0,128,128,128,,,,,,,None,689.7547955806658,None,688.7722967119917,None,689.255220689236,None,1,[0.024832049242832],[0.5250069996181992],689.7547955806658,None,[3 2 0 3 2 1 3 2],space,0,2.651303801823815,0.00284061042839312,None,689.779776121246,None,1,692.4358547889424,None,None,692.9354640290169,None,,,,,,,,,,,,,,,,,,,,,,,,,,,,,,,,,,,,,,,,,,,,,,,12_ZXF,12,24,F,2022-12-01_14h50.17.264,dynamic target,2022.1.3,120.0890068277893,
0,8,3,2,T,0,129,129,129,,,,,,,None,693.9678864230482,None,692.9937239157953,693.9928416270923,693.4683105694712,None,2,"[0.008618270465376554, 0.19175138637365308]","[0.07549389405539841, 0.6920340972028498]",693.9678864230482,None,[3 0 2 2 3 2 0 2],space,0,1.087492455739266,0.002850231896445621,None,694.1593914998157,None,1,695.2501241971295,None,None,695.749703610649,None,,,,,,,,,,,,,,,,,,,,,,,,,,,,,,,,,,,,,,,,,,,,,,,12_ZXF,12,24,F,2022-12-01_14h50.17.264,dynamic target,2022.1.3,120.0890068277893,
0,7,2,2,T,0,130,130,130,,,,,,,None,696.7821616041183,None,695.8080346962997,None,696.2825860712546,None,1,[0.00852430078521138],[0.5170866063708672],696.7821616041183,None,[2 2 0 0 0 3 2 0],space,0,5.120099934763857,0.0027713358504115604,None,696.7988160461719,None,1,701.9194686255141,None,None,702.4190438697281,None,,,,,,,,,,,,,,,,,,,,,,,,,,,,,,,,,,,,,,,,,,,,,,,12_ZXF,12,24,F,2022-12-01_14h50.17.264,dynamic target,2022.1.3,120.0890068277893,
0,6,2,2,T,0,131,131,131,,,,,,,None,703.4515015745549,None,702.4690613647654,None,702.9435989489502,None,1,[0.008209037318010814],[0.5160866150290531],703.4515015745549,None,[2 1 0 0 0 1 3 2],space,0,2.763465114087012,0.0032463157003803644,None,703.4598263581429,None,1,706.2241244222714,None,None,706.7237198715723,None,,,,,,,,,,,,,,,,,,,,,,,,,,,,,,,,,,,,,,,,,,,,,,,12_ZXF,12,24,F,2022-12-01_14h50.17.264,dynamic target,2022.1.3,120.0890068277893,
0,5,3,2,T,0,132,132,132,,,,,,,None,707.7561801100492,None,706.7736796377976,None,707.2566183679628,None,1,[0.007615392685693223],[0.5164041235075274],707.7561801100492,None,[0 1 3 3 2 2 3 3],space,0,2.6099946662725415,0.0028402897114574444,None,707.7728528328989,None,1,710.3872795200296,None,None,710.8868544435302,None,,,,,,,,,,,,,,,,,,,,,,,,,,,,,,,,,,,,,,,,,,,,,,,12_ZXF,12,24,F,2022-12-01_14h50.17.264,dynamic target,2022.1.3,120.0890068277893,
0,4,2,2,T,0,133,133,133,,,,,,,None,711.9193137198636,None,710.9284903562402,711.9276353283676,711.4197343384149,None,2,"[0.008116991932183737, 0.750580094401812]","[0.507613628746185, 1.2578232965934149]",711.9193137198636,None,[2 1 1 2 0 1 1 3],space,0,1.5129499646063778,0.002653633211593842,None,712.6770015140974,None,1,714.1923831961685,None,None,714.6919558746615,None,,,,,,,,,,,,,,,,,,,,,,,,,,,,,,,,,,,,,,,,,,,,,,,12_ZXF,12,24,F,2022-12-01_14h50.17.264,dynamic target,2022.1.3,120.0890068277893,
0,3,3,2,T,0,134,134,134,,,,,,,None,715.7244119438365,None,714.7335879387829,None,715.2248351281123,None,1,[0.008602876114309765],[0.5172851293464191],715.7244119438365,None,[1 1 1 0 2 3 0 2],space,0,2.048743272360298,0.002226119275292149,None,715.7410837045354,None,1,717.7893251084752,None,None,718.2888888069303,None,,,,,,,,,,,,,,,,,,,,,,,,,,,,,,,,,,,,,,,,,,,,,,,12_ZXF,12,24,F,2022-12-01_14h50.17.264,dynamic target,2022.1.3,120.0890068277893,
0,2,1,2,T,0,135,135,135,,,,,,,None,719.3213583461584,None,718.3389284313453,None,718.8217821718681,None,1,[0.008847582143062027],[0.5176866653200705],719.3213583461584,None,[0 3 2 3 2 2 0 2],space,0,2.6263184505114623,0.0018277904564456549,None,719.3380140710797,None,1,721.9691093117544,None,None,722.4686835938248,None,,,,,,,,,,,,,,,,,,,,,,,,,,,,,,,,,,,,,,,,,,,,,,,12_ZXF,12,24,F,2022-12-01_14h50.17.264,dynamic target,2022.1.3,120.0890068277893,
0,1,4,2,T,0,136,136,136,,,,,,,None,723.5011704837727,None,722.5103044329007,None,723.0015718273135,None,1,[0.008639437695819652],[0.5091700617085735],723.5011704837727,None,[1 3 3 3 1 2 1 0],space,0,1.8324090327914746,0.0026058465846290346,None,723.5094673651001,None,1,725.3412536196774,None,None,725.8408205252874,None,,,,,,,,,,,,,,,,,,,,,,,,,,,,,,,,,,,,,,,,,,,,,,,12_ZXF,12,24,F,2022-12-01_14h50.17.264,dynamic target,2022.1.3,120.0890068277893,
0,8,4,2,T,0,137,137,137,,,,,,,None,726.8732791601869,None,725.8908405860493,None,726.3736943265721,None,1,[0.008619874039140996],[0.5172488884782069],726.8732791601869,None,[2 3 2 2 0 2 3 1],space,0,1.0918285310872307,0.0027241906500421464,None,726.8899319986631,None,1,727.9806720724373,None,None,728.480246675221,None,,,,,,,,,,,,,,,,,,,,,,,,,,,,,,,,,,,,,,,,,,,,,,,12_ZXF,12,24,F,2022-12-01_14h50.17.264,dynamic target,2022.1.3,120.0890068277893,
0,7,1,2,T,0,138,138,138,,,,,,,None,729.5127158937357,None,728.5385864201962,None,729.0131284943964,None,1,[0.009183692123770015],[0.5176654980859894],729.5127158937357,None,[0 3 1 3 0 0 2 2],space,0,0.9481986010032415,0.0024660145681991708,None,729.5293607143249,None,1,730.4785519817488,None,None,730.9781265845361,None,,,,,,,,,,,,,,,,,,,,,,,,,,,,,,,,,,,,,,,,,,,,,,,12_ZXF,12,24,F,2022-12-01_14h50.17.264,dynamic target,2022.1.3,120.0890068277893,
0,6,3,2,T,0,139,139,139,,,,,,,None,732.0106038209415,None,731.0281341373884,None,731.5110128937304,None,1,[0.009356878566904925],[0.517573773417098],732.0106038209415,None,[3 0 0 0 1 3 2 3],space,0,3.0098494462363306,0.002439395168039482,None,732.0272370957646,None,1,735.0413617329177,None,None,735.5409238277919,None,,,,,,,,,,,,,,,,,,,,,,,,,,,,,,,,,,,,,,,,,,,,,,,12_ZXF,12,24,F,2022-12-01_14h50.17.264,dynamic target,2022.1.3,120.0890068277893,
0,5,2,2,T,0,140,140,140,,,,,,,None,736.5733754390187,None,735.5908778211342,None,736.0655000742445,None,1,[0.008703901537955971],[0.5164968103235879],736.5733754390187,None,[0 0 2 0 0 3 1 3],space,0,2.455345909220341,0.0029958367922517937,None,736.5817201069767,None,1,739.0379374521144,None,None,739.5375261663887,None,,,,,,,,,,,,,,,,,,,,,,,,,,,,,,,,,,,,,,,,,,,,,,,12_ZXF,12,24,F,2022-12-01_14h50.17.264,dynamic target,2022.1.3,120.0890068277893,
0,4,1,2,T,0,141,141,141,,,,,,,None,740.5699896120204,None,739.5791643241064,None,740.0704127962963,None,1,[0.009438340337510454],[0.5175564547716931],740.5699896120204,None,[0 2 2 1 1 3 1 2],space,0,1.6663351020688424,0.0026420874492032453,None,740.586636036187,None,1,742.2518887745355,None,None,742.7514627358889,None,,,,,,,,,,,,,,,,,,,,,,,,,,,,,,,,,,,,,,,,,,,,,,,12_ZXF,12,24,F,2022-12-01_14h50.17.264,dynamic target,2022.1.3,120.0890068277893,
0,3,4,2,T,0,142,142,142,,,,,,,None,743.7839178749912,None,742.793094479297,None,743.2843285192866,None,1,[0.008642324137326796],[0.5090507554923533],743.7839178749912,None,[0 0 3 0 2 0 1 1],space,0,1.2285268342093332,0.0026764040267153177,None,743.7922593357907,None,1,745.0245539887874,None,None,745.5241260258501,None,,,,,,,,,,,,,,,,,,,,,,,,,,,,,,,,,,,,,,,,,,,,,,,12_ZXF,12,24,F,2022-12-01_14h50.17.264,dynamic target,2022.1.3,120.0890068277893,
0,4,2,1,T,0,143,143,143,,,,,,,None,746.5565657385268,None,745.574116260057,None,746.0569886020858,None,1,[0.008674074982991442],[0.5174015491211321],746.5565657385268,None,[2 2 0 0 0 2 1 1],space,0,1.5829108725774859,0.0027629972428258043,None,746.573218577003,None,1,748.1552087265445,None,None,748.6547810843206,None,,,,,,,,,,,,,,,,,,,,,,,,,,,,,,,,,,,,,,,,,,,,,,,12_ZXF,12,24,F,2022-12-01_14h50.17.264,dynamic target,2022.1.3,120.0890068277893,
0,3,2,2,T,0,144,144,144,,,,,,,None,749.6872615278844,None,748.6964218077665,None,749.1876792599942,None,1,[0.008695242217072519],[0.517845098842372],749.6872615278844,None,[2 3 2 2 2 1 3 3],space,0,1.844712325870205,0.002422397243208252,None,749.7038941612773,None,1,751.5523233121457,None,None,752.0518975942161,None,,,,,,,,,,,,,,,,,,,,,,,,,,,,,,,,,,,,,,,,,,,,,,,12_ZXF,12,24,F,2022-12-01_14h50.17.264,dynamic target,2022.1.3,120.0890068277893,
0,2,4,2,T,0,145,145,145,,,,,,,None,753.0843607191346,None,752.0935463355527,None,752.5847813376859,None,1,[0.008635909820441157],[0.517709436124278],753.0843607191346,None,[0 2 1 0 2 3 3 0],space,0,1.8709208866057452,0.0023858356580603868,None,753.1010350455581,None,1,754.9744280597952,None,None,755.4739933618278,None,,,,,,,,,,,,,,,,,,,,,,,,,,,,,,,,,,,,,,,,,,,,,,,12_ZXF,12,24,F,2022-12-01_14h50.17.264,dynamic target,2022.1.3,120.0890068277893,
0,3,3,1,T,0,146,146,146,,,,,,,None,756.5064433374064,None,755.5156308781152,None,756.0068793503087,None,1,[0.008572408129111864],[0.5174612022274232],756.5064433374064,None,[2 2 1 2 1 1 0 3],space,0,1.2333401344185404,0.0026481810491532087,None,756.5231045144901,None,1,757.7553908288792,None,None,758.2549657523798,None,,,,,,,,,,,,,,,,,,,,,,,,,,,,,,,,,,,,,,,,,,,,,,,12_ZXF,12,24,F,2022-12-01_14h50.17.264,dynamic target,2022.1.3,120.0890068277893,
0,2,2,2,T,0,147,147,147,,,,,,,None,759.2874362858295,None,758.2966048722483,None,758.7878450058342,None,1,[0.008660604929900728],[0.5089955924049718],759.2874362858295,None,[0 1 3 0 3 2 0 0],space,0,1.6770078768677195,0.0027447164502518717,None,759.2957475993644,None,1,760.9776544590532,None,None,761.4772184782253,None,,,,,,,,,,,,,,,,,,,,,,,,,,,,,,,,,,,,,,,,,,,,,,,12_ZXF,12,24,F,2022-12-01_14h50.17.264,dynamic target,2022.1.3,120.0890068277893,
0,1,4,2,T,0,148,148,148,,,,,,,None,762.5096857724457,None,761.5272468775947,None,762.0101076738611,None,1,[0.008302365564304637],[0.5170885306615673],762.5096857724457,None,[0 2 1 0 2 0 1 0],space,0,2.87716810639904,0.0025240640970878303,None,762.5263488738237,None,1,765.4072254666171,None,None,765.9067878822082,None,,,,,,,,,,,,,,,,,,,,,,,,,,,,,,,,,,,,,,,,,,,,,,,12_ZXF,12,24,F,2022-12-01_14h50.17.264,dynamic target,2022.1.3,120.0890068277893,
0,8,3,2,T,0,149,149,149,,,,,,,None,766.9392606285983,None,765.9484337371032,None,766.43968253001,None,1,[0.008998639204946812],[0.5175740941303957],766.9392606285983,None,[3 0 1 3 3 2 2 3],space,0,1.8079413165069127,0.0025567770935595036,None,766.9559131463575,None,1,768.762710842464,None,None,769.2622851245344,None,,,,,,,,,,,,,,,,,,,,,,,,,,,,,,,,,,,,,,,,,,,,,,,12_ZXF,12,24,F,2022-12-01_14h50.17.264,dynamic target,2022.1.3,120.0890068277893,
0,7,3,2,T,0,150,150,150,,,,,,,None,770.2947431180037,None,769.3122497014956,None,769.7951531529397,None,1,[0.016970026237686398],[0.5175086681410903],770.2947431180037,None,[1 0 2 3 2 1 1 0],space,0,4.275944640405214,0.002507386885554297,None,770.3113978807742,None,1,774.5910943041854,None,None,775.0906698691199,None,,,,,,,,,,,,,,,,,,,,,,,,,,,,,,,,,,,,,,,,,,,,,,,12_ZXF,12,24,F,2022-12-01_14h50.17.264,dynamic target,2022.1.3,120.0890068277893,
0,6,2,2,T,0,151,151,151,,,,,,,None,776.1231362011931,None,775.1323269490604,None,775.6235494432876,None,1,[0.008682413590577198],[0.5175567754849908],776.1231362011931,None,[1 3 2 1 3 3 2 1],space,0,3.1990812906042265,0.0025853207844193093,None,776.1397800596351,None,1,779.3370637906592,None,None,779.8366374312993,None,,,,,,,,,,,,,,,,,,,,,,,,,,,,,,,,,,,,,,,,,,,,,,,12_ZXF,12,24,F,2022-12-01_14h50.17.264,dynamic target,2022.1.3,120.0890068277893,
0,5,2,2,T,0,152,152,152,,,,,,,None,780.8691159505688,None,779.8866446634347,None,780.3695266269351,None,1,[0.008658039201691281],[0.5169919952568307],780.8691159505688,None,[0 0 2 1 0 3 2 0],space,0,1.3491996186348842,0.0029262415009725373,None,780.8857485839617,None,1,782.2345884111965,None,None,782.7341845019312,None,,,,,,,,,,,,,,,,,,,,,,,,,,,,,,,,,,,,,,,,,,,,,,,12_ZXF,12,24,F,2022-12-01_14h50.17.264,dynamic target,2022.1.3,120.0890068277893,
0,4,1,2,T,0,153,153,153,,,,,,,None,783.7666341888637,None,782.7758165660525,None,783.2670640760989,None,1,[0.008638154831714928],[0.5089885366614908],783.7666341888637,None,[3 2 1 1 3 2 2 1],space,0,2.4282133667511516,0.0027514514840731863,None,783.7749474266893,None,1,786.2062349043154,None,None,786.7058053377971,None,,,,,,,,,,,,,,,,,,,,,,,,,,,,,,,,,,,,,,,,,,,,,,,12_ZXF,12,24,F,2022-12-01_14h50.17.264,dynamic target,2022.1.3,120.0890068277893,
0,3,1,2,T,0,154,154,154,,,,,,,None,787.7382678212853,None,786.7558276435702,None,787.2386890812704,None,1,[0.008690752198162954],[0.5172155340551399],787.7382678212853,None,[1 0 2 0 1 0 2 1],space,0,1.1361607321850897,0.0029467673011822626,None,787.7549123211575,None,1,788.895615721096,None,None,789.3951877581551,None,,,,,,,,,,,,,,,,,,,,,,,,,,,,,,,,,,,,,,,,,,,,,,,12_ZXF,12,24,F,2022-12-01_14h50.17.264,dynamic target,2022.1.3,120.0890068277893,
0,2,2,2,T,0,155,155,155,,,,,,,None,790.4276524866546,None,789.4368255951595,None,789.9280689359002,None,1,[0.008636551254312508],[0.518105199214915],790.4276524866546,None,[1 2 2 1 3 1 0 2],space,0,2.4139097702791332,0.0022132906487968285,None,790.4442992315344,None,1,792.8589229663521,None,None,793.358488268381,None,,,,,,,,,,,,,,,,,,,,,,,,,,,,,,,,,,,,,,,,,,,,,,,12_ZXF,12,24,F,2022-12-01_14h50.17.264,dynamic target,2022.1.3,120.0890068277893,
0,1,2,2,T,0,156,156,156,,,,,,,None,794.3909456204201,None,793.4001277089665,None,793.8913771433035,None,1,[0.00890306594374124],[0.517547474733874],794.3909456204201,None,[1 1 3 2 0 0 2 2],space,0,2.930815813750087,0.002502576149709057,None,794.407601986768,None,1,797.3384431885934,None,None,797.8380184328109,None,,,,,,,,,,,,,,,,,,,,,,,,,,,,,,,,,,,,,,,,,,,,,,,12_ZXF,12,24,F,2022-12-01_14h50.17.264,dynamic target,2022.1.3,120.0890068277893,
0,7,2,0,T,0,157,157,157,,,,,,,None,798.870475464133,None,797.8880410592974,None,798.3708877440768,None,1,[0.00915033769706497],[0.5174137363137561],798.870475464133,None,[1 3 1 1 2 1 1 1],space,0,1.1870897331209562,0.002547155621869024,None,798.8871308683338,None,1,800.0777854072476,None,None,800.5773603307482,None,,,,,,,,,,,,,,,,,,,,,,,,,,,,,,,,,,,,,,,,,,,,,,,12_ZXF,12,24,F,2022-12-01_14h50.17.264,dynamic target,2022.1.3,120.0890068277893,
0,2,4,0,T,0,158,158,158,,,,,,,None,801.6098180035005,None,800.6357074521802,None,801.1102418292066,None,1,[0.009515632802504115],[0.5175782634360075],801.6098180035005,None,[1 0 2 2 3 3 3 0],space,0,3.039631420542719,0.0025663985579740256,None,801.626488481339,None,1,804.6655554939061,None,None,805.1651544710824,None,,,,,,,,,,,,,,,,,,,,,,,,,,,,,,,,,,,,,,,,,,,,,,,12_ZXF,12,24,F,2022-12-01_14h50.17.264,dynamic target,2022.1.3,120.0890068277893,
0,1,4,2,T,0,159,159,159,,,,,,,None,806.1975900465279,None,805.2151354045382,None,805.6896845344818,None,1,[0.00862115690324572],[0.5164317050512182],806.1975900465279,None,[2 2 1 2 0 0 0 3],space,0,2.2201442897385277,0.0026295795396436006,None,806.2059536367087,None,1,808.4290286774303,None,None,808.9286019973536,None,,,,,,,,,,,,,,,,,,,,,,,,,,,,,,,,,,,,,,,,,,,,,,,12_ZXF,12,24,F,2022-12-01_14h50.17.264,dynamic target,2022.1.3,120.0890068277893,
0,8,2,2,T,0,160,160,160,,,,,,,None,809.961059349389,None,808.9702369479164,809.9693883343534,809.4614815715213,None,1,[0.07478992324467981],[0.5748426809659577],809.961059349389,None,[3 0 2 1 1 1 1 2],space,0,1.1262878221677965,0.0030933343441574834,None,810.0359993675484,None,1,811.1600409489729,None,None,811.6596152310433,None,,,,,,,,,,,,,,,,,,,,,,,,,,,,,,,,,,,,,,,,,,,,,,,12_ZXF,12,24,F,2022-12-01_14h50.17.264,dynamic target,2022.1.3,120.0890068277893,
0,7,4,2,T,0,161,161,161,,,,,,,None,812.69207482809,None,811.7012485780288,None,812.1924896737582,None,1,[0.009438981764105847],[0.5175426639980287],812.69207482809,None,[3 1 1 0 3 1 0 3],space,0,2.660953173046437,0.0026042430072266143,None,812.7087218936867,None,1,815.3731292256307,None,None,815.8727006212596,None,,,,,,,,,,,,,,,,,,,,,,,,,,,,,,,,,,,,,,,,,,,,,,,12_ZXF,12,24,F,2022-12-01_14h50.17.264,dynamic target,2022.1.3,120.0890068277893,
0,6,1,2,T,0,162,162,162,,,,,,,None,816.9051618218837,None,815.9310079739516,None,816.4055872511708,None,1,[0.00873052093811566],[0.5176398408366367],816.9051618218837,None,[1 1 0 0 3 0 3 1],space,0,4.3036624889064115,0.0024653731343278196,None,816.9218201125259,None,1,821.226486492902,None,None,821.726073282882,None,,,,,,,,,,,,,,,,,,,,,,,,,,,,,,,,,,,,,,,,,,,,,,,12_ZXF,12,24,F,2022-12-01_14h50.17.264,dynamic target,2022.1.3,120.0890068277893,
0,5,1,2,T,0,163,163,163,,,,,,,None,822.7585251827513,None,821.7760580649228,None,822.2589496498913,None,1,[0.008626929786260007],[0.5174329792498611],822.7585251827513,None,[2 3 2 3 2 3 2 1],space,0,3.21776297616816,0.0027007784083252773,None,822.77518251125,None,1,825.9974256156202,None,None,826.4970152920416,None,,,,,,,,,,,,,,,,,,,,,,,,,,,,,,,,,,,,,,,,,,,,,,,12_ZXF,12,24,F,2022-12-01_14h50.17.264,dynamic target,2022.1.3,120.0890068277893,
0,4,4,2,T,0,164,164,164,,,,,,,None,827.5294720347213,None,826.5386399797062,None,827.029888772613,None,1,[0.008642965567560168],[0.5087935415540414],827.5294720347213,None,[3 3 1 3 0 2 3 0],space,0,3.815696541209036,0.002974990275106393,None,827.5378080433547,None,1,831.3512708517264,None,None,831.8507938192981,None,,,,,,,,,,,,,,,,,,,,,,,,,,,,,,,,,,,,,,,,,,,,,,,12_ZXF,12,24,F,2022-12-01_14h50.17.264,dynamic target,2022.1.3,120.0890068277893,
0,1,4,0,T,0,165,165,165,,,,,,,None,832.8832473227449,None,831.8924399949065,None,832.3836849392246,None,1,[0.00864360699779354],[0.5176295779347129],832.8832473227449,None,[3 1 0 1 0 2 3 0],space,0,1.0446875024790643,0.00227518876636168,None,832.8998956712057,None,1,833.94903604106,None,None,834.4486016638095,None,,,,,,,,,,,,,,,,,,,,,,,,,,,,,,,,,,,,,,,,,,,,,,,12_ZXF,12,24,F,2022-12-01_14h50.17.264,dynamic target,2022.1.3,120.0890068277893,
0,8,3,2,T,0,166,166,166,,,,,,,None,835.4810535636789,None,834.4985562985821,None,834.9814780308188,None,1,[0.008667660669743782],[0.5174685786878399],835.4810535636789,None,[1 2 3 0 3 2 0 3],space,0,0.9429558625670325,0.0026677446985559072,None,835.4977070435889,None,1,836.4385754196483,None,None,836.9381577196093,None,,,,,,,,,,,,,,,,,,,,,,,,,,,,,,,,,,,,,,,,,,,,,,,12_ZXF,12,24,F,2022-12-01_14h50.17.264,dynamic target,2022.1.3,120.0890068277893,
0,7,1,2,T,0,167,167,167,,,,,,,None,837.9706064123238,None,836.9881040157779,None,837.471031520894,None,1,[0.008632702669274295],[0.517553568330186],837.9706064123238,None,[0 2 0 3 2 1 0 0],space,0,4.148805908123904,0.002553569935116684,None,837.9872554022149,None,1,842.1337502850365,None,None,842.6333130213445,None,,,,,,,,,,,,,,,,,,,,,,,,,,,,,,,,,,,,,,,,,,,,,,,12_ZXF,12,24,F,2022-12-01_14h50.17.264,dynamic target,2022.1.3,120.0890068277893,
0,6,4,2,T,0,168,168,168,,,,,,,None,843.6657694112328,None,842.6916508420218,843.6907473860883,843.166180408316,None,2,"[0.007674404358112952, 0.7659173573556473]","[0.5162662157817977, 1.2737558077606081]",843.6657694112328,None,[3 0 1 1 2 1 1 1],space,0,3.2963876962239738,0.0029541437615989707,None,844.4401135718181,None,1,847.7373120887023,None,None,848.2368863707727,None,,,,,,,,,,,,,,,,,,,,,,,,,,,,,,,,,,,,,,,,,,,,,,,12_ZXF,12,24,F,2022-12-01_14h50.17.264,dynamic target,2022.1.3,120.0890068277893,
0,5,3,2,T,0,169,169,169,,,,,,,None,849.26935398571,None,848.2952126456876,None,848.7697704349594,None,1,[0.00931871340435464],[0.5175866020399553],849.26935398571,None,[2 3 2 2 3 2 3 0],space,0,1.9702481214226282,0.0023762141936458647,None,849.2860023341673,None,1,851.2593393193856,None,None,851.7589238643543,None,,,,,,,,,,,,,,,,,,,,,,,,,,,,,,,,,,,,,,,,,,,,,,,12_ZXF,12,24,F,2022-12-01_14h50.17.264,dynamic target,2022.1.3,120.0890068277893,
0,4,1,2,T,0,170,170,170,,,,,,,None,852.7913511011923,None,851.8005296297961,None,852.2917787434162,None,1,[0.00861538402386941],[0.5087255498438026],852.7913511011923,None,[3 0 0 0 3 3 1 3],space,0,2.024396786586294,0.0028762098590959795,None,852.7996839026746,None,1,854.8229672161287,None,None,855.3225373288935,None,,,,,,,,,,,,,,,,,,,,,,,,,,,,,,,,,,,,,,,,,,,,,,,12_ZXF,12,24,F,2022-12-01_14h50.17.264,dynamic target,2022.1.3,120.0890068277893,
0,3,4,2,T,0,171,171,171,,,,,,,None,856.3549972466571,None,855.380867773114,None,855.8554185066387,None,1,[0.00858555746890488],[0.517690193188173],856.3549972466571,None,[1 3 0 2 1 1 2 1],space,0,3.2354235031634744,0.002356329823669512,None,856.3716321250577,None,1,859.610564950206,None,None,860.1101507780388,None,,,,,,,,,,,,,,,,,,,,,,,,,,,,,,,,,,,,,,,,,,,,,,,12_ZXF,12,24,F,2022-12-01_14h50.17.264,dynamic target,2022.1.3,120.0890068277893,
0,2,4,2,T,0,172,172,172,,,,,,,None,861.1425885984956,None,860.1684828258403,None,860.634691745774,None,1,[0.009053802292328328],[0.5164131035453465],861.1425885984956,None,[3 0 0 3 2 3 1 3],space,0,1.8010449682733451,0.0030189283170329873,None,861.1509326250234,None,1,862.9493952425692,None,None,863.4489878054285,None,,,,,,,,,,,,,,,,,,,,,,,,,,,,,,,,,,,,,,,,,,,,,,,12_ZXF,12,24,F,2022-12-01_14h50.17.264,dynamic target,2022.1.3,120.0890068277893,
0,7,2,0,T,0,173,173,173,,,,,,,None,864.481426876675,None,863.5072595586898,None,863.9818513438149,None,1,[0.009393119431479136],[0.5175070645636879],864.481426876675,None,[2 3 2 2 3 0 1 1],space,0,4.0694727272384625,0.0025888486561598256,None,864.4980797151547,None,1,868.569630089798,None,None,869.0691937882532,None,,,,,,,,,,,,,,,,,,,,,,,,,,,,,,,,,,,,,,,,,,,,,,,12_ZXF,12,24,F,2022-12-01_14h50.17.264,dynamic target,2022.1.3,120.0890068277893,
0,6,1,2,T,0,174,174,174,,,,,,,None,870.1016533852999,None,869.1191612516523,None,869.6020781731531,None,1,[0.009508577059023082],[0.5175654348095122],870.1016533852999,None,[3 1 3 0 1 2 2 3],space,0,1.6485443645287887,0.00259333867506939,None,870.1183046201986,None,1,871.7669314601844,None,None,872.2664826507264,None,,,,,,,,,,,,,,,,,,,,,,,,,,,,,,,,,,,,,,,,,,,,,,,12_ZXF,12,24,F,2022-12-01_14h50.17.264,dynamic target,2022.1.3,120.0890068277893,
0,4,1,0,T,0,175,175,175,,,,,,,None,873.2906123006651,None,872.3164921278731,None,872.7910467099864,None,1,[0.008716409447515616],[0.5171818589114991],873.2906123006651,None,[2 1 3 0 0 2 0 1],space,0,1.4043380122384406,0.0030702428230142687,None,873.3072641769941,None,1,874.7143979189423,None,None,875.2139786153223,None,,,,,,,,,,,,,,,,,,,,,,,,,,,,,,,,,,,,,,,,,,,,,,,12_ZXF,12,24,F,2022-12-01_14h50.17.264,dynamic target,2022.1.3,120.0890068277893,
0,3,1,2,T,0,176,176,176,,,,,,,None,876.2464516824257,None,875.2639903374802,None,875.7468594723541,None,1,[0.008630457658000523],[0.5172145719079708],876.2464516824257,None,[1 1 2 3 3 2 2 1],space,0,1.9853605627176876,0.0030221354754758067,None,876.263095861581,None,1,878.2530734980792,None,None,878.7526477801496,None,,,,,,,,,,,,,,,,,,,,,,,,,,,,,,,,,,,,,,,,,,,,,,,12_ZXF,12,24,F,2022-12-01_14h50.17.264,dynamic target,2022.1.3,120.0890068277893,
0,2,1,2,T,0,177,177,177,,,,,,,None,879.7851060943358,None,878.8026716895001,None,879.2855219021512,None,1,[0.008656114907353185],[0.5171655024132633],879.7851060943358,None,[1 1 3 3 0 2 2 1],space,0,1.4053655851239455,0.0029743488448730204,None,879.8017509149213,None,1,881.2089064655302,None,None,881.7084698432684,None,,,,,,,,,,,,,,,,,,,,,,,,,,,,,,,,,,,,,,,,,,,,,,,12_ZXF,12,24,F,2022-12-01_14h50.17.264,dynamic target,2022.1.3,120.0890068277893,
0,1,1,2,T,0,178,178,178,,,,,,,None,882.7409461175303,None,881.7500913237782,None,882.2413452481342,None,1,[0.009041294382768683],[0.5175942992136697],882.7409461175303,None,[2 1 0 0 3 2 2 0],space,0,1.7607018282069475,0.0023701205936959013,None,882.7575761851986,None,1,884.5227267114751,None,None,885.0223157464627,None,,,,,,,,,,,,,,,,,,,,,,,,,,,,,,,,,,,,,,,,,,,,,,,12_ZXF,12,24,F,2022-12-01_14h50.17.264,dynamic target,2022.1.3,120.0890068277893,
0,8,3,2,T,0,179,179,179,,,,,,,None,886.0547727777848,None,885.0723268271904,None,885.5552052628154,None,1,[0.008714805866475217],[0.5174272063704848],886.0547727777848,None,[1 1 1 2 1 1 0 2],space,0,0.8953215733199613,0.002595262965769507,None,886.0714268991251,None,1,886.9706606132677,None,space,887.4785654518055,None,8.645388201992318,,,,,,,,,,,,,,,,,,,,,,,,,,,,,,,,,,,,,,,,,,,,,,12_ZXF,12,24,F,2022-12-01_14h50.17.264,dynamic target,2022.1.3,120.0890068277893,
0,1,2,1,T,0,180,180,180,,,,,,,None,897.170334317183,None,896.1795125571407,None,896.6707421071078,None,1,[0.00864200342039112],[0.5179355406507966],897.170334317183,None,[0 2 2 3 2 0 2 3],space,0,0.930321590960375,0.0021250938516459428,None,897.1869714405948,None,1,898.1195278296182,None,None,898.6191027531188,None,,,,,,,,,,,,,,,,,,,,,,,,,,,,,,,,,,,,,,,,,,,,,,,12_ZXF,12,24,F,2022-12-01_14h50.17.264,dynamic target,2022.1.3,120.0890068277893,
0,8,1,2,T,0,181,181,181,,,,,,,None,899.6515591430107,None,898.6607412315534,None,899.1519983630678,None,1,[0.008637834118417231],[0.5176654980859894],899.6515591430107,None,[3 1 1 1 0 0 1 3],space,0,2.9613129839126486,0.002449658069963334,None,899.6682010771547,None,1,902.6323607845588,None,None,903.1319357080631,None,,,,,,,,,,,,,,,,,,,,,,,,,,,,,,,,,,,,,,,,,,,,,,,12_ZXF,12,24,F,2022-12-01_14h50.17.264,dynamic target,2022.1.3,120.0890068277893,
0,7,2,2,T,0,182,182,182,,,,,,,None,904.1643994744118,None,903.190281546631,None,903.6648168858082,None,1,[0.008761630353546934],[0.5175497197451477],904.1643994744118,None,[3 1 0 2 3 0 3 3],space,0,4.335743994291988,0.0025833964937191922,None,904.1810551993294,None,1,908.5190137866048,None,None,909.0186041044565,None,,,,,,,,,,,,,,,,,,,,,,,,,,,,,,,,,,,,,,,,,,,,,,,12_ZXF,12,24,F,2022-12-01_14h50.17.264,dynamic target,2022.1.3,120.0890068277893,
0,8,4,1,T,0,183,183,183,,,,,,,None,910.0510620979221,None,909.0686238445014,910.0677149364019,909.5514916965112,None,1,[0.041596817474783165],[0.5505058166600065],910.0510620979221,None,[2 1 3 3 1 1 2 0],space,0,1.440392222160881,0.0025445898972975556,None,910.1010222169352,None,1,911.5414702951566,None,None,912.0410429736496,None,,,,,,,,,,,,,,,,,,,,,,,,,,,,,,,,,,,,,,,,,,,,,,,12_ZXF,12,24,F,2022-12-01_14h50.17.264,dynamic target,2022.1.3,120.0890068277893,
0,4,3,0,T,0,184,184,184,,,,,,,None,913.073493302016,None,912.0993564199416,None,912.5655926007057,None,1,[0.008647455586469732],[0.5164724359347019],913.073493302016,None,[3 1 3 1 0 2 0 0],space,0,3.7721978800327634,0.0031337445143435616,None,913.0818206513286,None,1,916.8536160847871,None,None,917.3531910082877,None,,,,,,,,,,,,,,,,,,,,,,,,,,,,,,,,,,,,,,,,,,,,,,,12_ZXF,12,24,F,2022-12-01_14h50.17.264,dynamic target,2022.1.3,120.0890068277893,
0,8,1,0,T,0,185,185,185,,,,,,,None,918.3856566989307,None,917.403200164721,918.4023069716859,917.8860750724743,None,1,[0.06646510758218938],[0.5666830338559521],918.3856566989307,None,[3 2 2 0 0 1 0 1],space,0,2.6568454472326266,0.0028399689945217688,None,918.4522706185671,None,1,921.108336778354,None,None,921.6079286997831,None,,,,,,,,,,,,,,,,,,,,,,,,,,,,,,,,,,,,,,,,,,,,,,,12_ZXF,12,24,F,2022-12-01_14h50.17.264,dynamic target,2022.1.3,120.0890068277893,
0,1,3,1,T,0,186,186,186,,,,,,,None,922.640369374607,None,921.6662357317618,None,922.1408028217847,None,1,[0.008658680635562632],[0.5174191884798347],922.640369374607,None,[3 2 2 0 1 3 1 3],space,0,1.9877473284504958,0.002682176902453648,None,922.6570247788113,None,1,924.6469873416754,None,None,925.1465734902251,None,,,,,,,,,,,,,,,,,,,,,,,,,,,,,,,,,,,,,,,,,,,,,,,12_ZXF,12,24,F,2022-12-01_14h50.17.264,dynamic target,2022.1.3,120.0890068277893,
0,8,4,2,T,0,187,187,187,,,,,,,None,926.1790327665549,None,925.196534218594,None,925.679462044427,None,1,[0.02519125074832118],[0.5252696657189517],926.1790327665549,None,[1 1 0 0 1 1 2 3],space,0,0.969579108616017,0.0030118725735519547,None,926.2040113828407,None,1,927.1781732486597,None,None,927.6777571521982,None,,,,,,,,,,,,,,,,,,,,,,,,,,,,,,,,,,,,,,,,,,,,,,,12_ZXF,12,24,F,2022-12-01_14h50.17.264,dynamic target,2022.1.3,120.0890068277893,
0,7,2,2,T,0,188,188,188,,,,,,,None,928.7102167492449,None,927.7360933693017,928.7351985726891,928.2106408956679,None,1,[0.19242553063304513],[0.7004830298137676],928.7102167492449,None,[1 3 3 0 0 0 1 3],space,0,0.9828913730671047,0.002820726058416767,None,928.9100453588107,None,1,929.8925451896357,None,None,930.3921268481629,None,,,,,,,,,,,,,,,,,,,,,,,,,,,,,,,,,,,,,,,,,,,,,,,12_ZXF,12,24,F,2022-12-01_14h50.17.264,dynamic target,2022.1.3,120.0890068277893,
0,6,1,2,T,0,189,189,189,,,,,,,None,931.4245761823113,None,930.4420753893428,None,930.9250006494476,None,1,[0.009229875173332402],[0.5175067438467522],931.4245761823113,None,[3 2 0 0 0 3 0 1],space,0,1.443429078481131,0.002568643572885776,None,931.4412299829346,None,1,932.8900108947091,None,None,933.3895672167039,None,,,,,,,,,,,,,,,,,,,,,,,,,,,,,,,,,,,,,,,,,,,,,,,12_ZXF,12,24,F,2022-12-01_14h50.17.264,dynamic target,2022.1.3,120.0890068277893,
0,5,2,2,T,0,190,190,190,,,,,,,None,934.4220316244864,None,933.4395356422501,None,933.9224548087623,None,1,[0.00860736613321933],[0.5176199564666604],934.4220316244864,None,[3 2 2 3 1 2 3 1],space,0,2.5412765313740238,0.002261718713270966,None,934.438701460891,None,1,936.978179470545,None,None,937.4777736369817,None,,,,,,,,,,,,,,,,,,,,,,,,,,,,,,,,,,,,,,,,,,,,,,,12_ZXF,12,24,F,2022-12-01_14h50.17.264,dynamic target,2022.1.3,120.0890068277893,
0,5,3,0,T,0,191,191,191,,,,,,,None,938.5102252161378,None,937.5277747755244,None,938.0106484004136,None,1,[0.008615063306933735],[0.5173569696453342],938.5102252161378,None,[0 3 3 1 3 0 0 0],space,0,2.8217737817176385,0.002754017201368697,None,938.5268770924704,None,1,941.3494809377844,None,None,941.8490565027189,None,,,,,,,,,,,,,,,,,,,,,,,,,,,,,,,,,,,,,,,,,,,,,,,12_ZXF,12,24,F,2022-12-01_14h50.17.264,dynamic target,2022.1.3,120.0890068277893,
0,4,2,2,T,0,192,192,192,,,,,,,None,942.8815122511769,None,941.8906802282327,None,942.3819533955284,None,1,[0.008670547111250926],[0.5176228429081675],942.8815122511769,None,[1 0 2 0 0 2 3 2],space,0,2.0017196256776515,0.0024717874475754797,None,942.8981647689398,None,1,944.9047949232008,None,None,945.4043698467015,None,,,,,,,,,,,,,,,,,,,,,,,,,,,,,,,,,,,,,,,,,,,,,,,12_ZXF,12,24,F,2022-12-01_14h50.17.264,dynamic target,2022.1.3,120.0890068277893,
0,3,3,2,T,0,193,193,193,,,,,,,None,946.4368390652162,None,945.4627041395106,None,945.9372616080618,None,1,[0.008703260107722599],[0.5171116221899865],946.4368390652162,None,[0 0 3 2 2 3 2 2],space,0,1.6627257683430798,0.0029477294447133318,None,946.4534809993638,None,1,948.1187340584293,None,None,948.6183282248696,None,,,,,,,,,,,,,,,,,,,,,,,,,,,,,,,,,,,,,,,,,,,,,,,12_ZXF,12,24,F,2022-12-01_14h50.17.264,dynamic target,2022.1.3,120.0890068277893,
0,2,3,2,T,0,194,194,194,,,,,,,None,949.6507669753992,None,948.6683309669861,None,949.1511888768109,None,1,[0.008649059163872153],[0.5172129683305684],949.6507669753992,None,[1 0 1 3 1 1 1 2],space,0,3.47278321813792,0.002970820976770483,None,949.6674230210338,None,1,953.1394737762057,None,None,953.6390442096874,None,,,,,,,,,,,,,,,,,,,,,,,,,,,,,,,,,,,,,,,,,,,,,,,12_ZXF,12,24,F,2022-12-01_14h50.17.264,dynamic target,2022.1.3,120.0890068277893,
0,1,4,2,T,0,195,195,195,,,,,,,None,954.6715054103115,None,953.680663124469,None,954.1719340467534,None,1,[0.008672150688653346],[0.5169352285920468],954.6715054103115,None,[3 0 0 2 0 0 1 3],space,0,2.868015844407637,0.0032482399910804816,None,954.688161776663,None,1,957.5607196473939,None,None,958.0602881565812,None,,,,,,,,,,,,,,,,,,,,,,,,,,,,,,,,,,,,,,,,,,,,,,,12_ZXF,12,24,F,2022-12-01_14h50.17.264,dynamic target,2022.1.3,120.0890068277893,
0,2,4,1,T,0,196,196,196,,,,,,,None,959.0927471121977,None,958.1186359194471,None,958.5931693343264,None,1,[0.008617949748440878],[0.5173781368794153],959.0927471121977,None,[0 0 3 2 0 2 0 1],space,0,1.5977670620850404,0.002728359955654014,None,959.1093996299569,None,1,960.7080406936839,None,None,961.2076377465621,None,,,,,,,,,,,,,,,,,,,,,,,,,,,,,,,,,,,,,,,,,,,,,,,12_ZXF,12,24,F,2022-12-01_14h50.17.264,dynamic target,2022.1.3,120.0890068277893,
0,1,1,2,T,0,197,197,197,,,,,,,None,962.2400736106538,None,961.2659473442654,None,961.7404967949296,None,1,[0.008976830540632363],[0.5173255395166052],962.2400736106538,None,[2 0 3 3 0 0 0 2],space,0,3.4742607550542743,0.0025962251165765338,None,962.2567437677753,None,1,965.7287646963923,None,None,966.228351165659,None,,,,,,,,,,,,,,,,,,,,,,,,,,,,,,,,,,,,,,,,,,,,,,,12_ZXF,12,24,F,2022-12-01_14h50.17.264,dynamic target,2022.1.3,120.0890068277893,
0,2,2,1,T,0,198,198,198,,,,,,,None,967.2608081969775,None,966.2783349855526,None,966.7612336262646,None,1,[0.008655152760184137],[0.5174313756724587],967.2608081969775,None,[0 3 3 3 1 3 3 3],space,0,1.8930919582453498,0.0020282377299736254,None,967.2774668083366,None,1,969.1758618511012,None,None,969.6754242666923,None,,,,,,,,,,,,,,,,,,,,,,,,,,,,,,,,,,,,,,,,,,,,,,,12_ZXF,12,24,F,2022-12-01_14h50.17.264,dynamic target,2022.1.3,120.0890068277893,
0,1,4,2,T,0,199,199,199,,,,,,,None,970.707888033041,None,969.7254744747224,None,970.2083044822903,None,1,[0.009002808506920701],[0.5175218174808833],970.707888033041,None,[0 2 1 2 0 1 2 0],space,0,2.5265951318870066,0.0027136070348205976,None,970.7245630008983,None,1,973.2557168363201,None,None,973.7553065127415,None,,,,,,,,,,,,,,,,,,,,,,,,,,,,,,,,,,,,,,,,,,,,,,,12_ZXF,12,24,F,2022-12-01_14h50.17.264,dynamic target,2022.1.3,120.0890068277893,
0,8,1,2,T,0,200,200,200,,,,,,,None,974.7877510361541,None,973.8053114998693,974.8044154203926,974.2881729375658,None,1,[0.8327817559002142],[1.3404261733485328],974.7877510361541,None,[0 3 0 2 0 3 3 3],space,0,3.4305815309780883,0.0027290013822494075,None,975.6287116821004,None,1,979.0591226439028,None,None,979.5587039817167,None,,,,,,,,,,,,,,,,,,,,,,,,,,,,,,,,,,,,,,,,,,,,,,,12_ZXF,12,24,F,2022-12-01_14h50.17.264,dynamic target,2022.1.3,120.0890068277893,
0,7,2,2,T,0,201,201,201,,,,,,,None,980.5911805766918,None,979.6003475916041,None,980.0915848387449,None,1,[0.009162845606624614],[0.5175490783112764],980.5911805766918,None,[3 3 2 3 3 1 1 1],space,0,1.0274041370685154,0.0025269505349569954,None,980.6078083993489,None,1,981.6402686699003,None,None,982.1398227468837,None,,,,,,,,,,,,,,,,,,,,,,,,,,,,,,,,,,,,,,,,,,,,,,,12_ZXF,12,24,F,2022-12-01_14h50.17.264,dynamic target,2022.1.3,120.0890068277893,
0,6,4,2,T,0,202,202,202,,,,,,,None,983.1722955253447,None,982.1814705260731,None,982.6727125839534,None,1,[0.008631740518467268],[0.5087592249838053],983.1722955253447,None,[1 2 3 2 2 1 2 0],space,0,1.0624602799434797,0.002956709486170439,None,983.1806247989516,None,1,984.2463840114287,None,None,984.7459666321031,None,,,,,,,,,,,,,,,,,,,,,,,,,,,,,,,,,,,,,,,,,,,,,,,12_ZXF,12,24,F,2022-12-01_14h50.17.264,dynamic target,2022.1.3,120.0890068277893,
0,5,3,2,T,0,203,203,203,,,,,,,None,985.7784380956291,None,984.7875922819148,None,985.2788535827312,None,1,[0.008700373666215455],[0.5174554293480469],985.7784380956291,None,[1 0 3 2 1 3 0 3],space,0,2.895088092336664,0.0026664618380891625,None,985.7950700875917,None,1,988.6926081781858,None,None,989.1921895159996,None,,,,,,,,,,,,,,,,,,,,,,,,,,,,,,,,,,,,,,,,,,,,,,,12_ZXF,12,24,F,2022-12-01_14h50.17.264,dynamic target,2022.1.3,120.0890068277893,
0,4,3,2,T,0,204,204,204,,,,,,,None,990.2246391708613,None,989.2338151658078,990.2329655900976,989.7250626758541,None,3,"[0.06673579157722997, 0.10893363014474744, 0.12508454865746899]","[0.07508145375322783, 0.11668917556016822, 0.6254775856650667]",990.2246391708613,None,[3 3 3 1 2 3 0 0],space,0,2.0367619777789514,0.002470504587108735,None,990.3495271208376,None,1,992.3894674420735,None,None,992.8890449312987,None,,,,,,,,,,,,,,,,,,,,,,,,,,,,,,,,,,,,,,,,,,,,,,,12_ZXF,12,24,F,2022-12-01_14h50.17.264,dynamic target,2022.1.3,120.0890068277893,
0,3,2,2,T,0,205,205,205,,,,,,,None,993.9131918998792,None,992.9223492933197,None,993.4136022555285,None,1,[0.008763554644247051],[0.5176382372555963],993.9131918998792,None,[3 2 1 0 0 1 2 2],space,0,1.9283828649640782,0.002634710992424516,None,993.9298293440042,None,1,995.8615236494115,None,None,996.361091837882,None,,,,,,,,,,,,,,,,,,,,,,,,,,,,,,,,,,,,,,,,,,,,,,,12_ZXF,12,24,F,2022-12-01_14h50.17.264,dynamic target,2022.1.3,120.0890068277893,
0,2,3,2,T,0,206,206,206,,,,,,,None,997.393519684083,None,996.4027399377883,None,996.89397205348,None,1,[0.009475543349253712],[0.5178143101402384],997.393519684083,None,[2 3 0 1 2 2 2 3],space,0,2.2549335972071276,0.002083400817355141,None,997.4102097255745,None,1,999.666620269807,None,None,1000.1661948725907,None,,,,,,,,,,,,,,,,,,,,,,,,,,,,,,,,,,,,,,,,,,,,,,,12_ZXF,12,24,F,2022-12-01_14h50.17.264,dynamic target,2022.1.3,120.0890068277893,
0,5,2,0,T,0,207,207,207,,,,,,,None,1001.1986535074902,None,1000.2078304645875,None,1000.6990766917661,None,1,[0.008990621310658753],[0.5176978903618874],1001.1986535074902,None,[3 1 3 0 2 0 2 0],space,0,2.529997283312696,0.0024159829299605917,None,1001.2153175710155,None,1,1003.7464970636865,None,None,1004.2460681386021,None,,,,,,,,,,,,,,,,,,,,,,,,,,,,,,,,,,,,,,,,,,,,,,,12_ZXF,12,24,F,2022-12-01_14h50.17.264,dynamic target,2022.1.3,120.0890068277893,
0,4,4,2,T,0,208,208,208,,,,,,,None,1005.2785270942186,None,1004.2877005234404,None,1004.7789467506227,None,1,[0.009143602670519613],[0.517619315036427],1005.2785270942186,None,[3 2 1 2 0 0 3 2],space,0,1.8739291992314975,0.002474353175784927,None,1005.2951780084004,None,1,1007.1685707019205,None,None,1007.6681568504703,None,,,,,,,,,,,,,,,,,,,,,,,,,,,,,,,,,,,,,,,,,,,,,,,12_ZXF,12,24,F,2022-12-01_14h50.17.264,dynamic target,2022.1.3,120.0890068277893,
0,3,3,2,T,0,209,209,209,,,,,,,None,1008.7006135931463,None,1007.7097911596029,None,1008.2010373867852,None,1,[0.008651304175145924],[0.5088926426869875],1008.7006135931463,None,[1 3 0 1 3 1 2 0],space,0,2.044223106244317,0.0026863462044275366,None,1008.7089415838927,None,1,1010.7571987028969,None,None,1011.2567694570955,None,,,,,,,,,,,,,,,,,,,,,,,,,,,,,,,,,,,,,,,,,,,,,,,12_ZXF,12,24,F,2022-12-01_14h50.17.264,dynamic target,2022.1.3,120.0890068277893,
0,4,3,1,T,0,210,210,210,,,,,,,None,1012.2892335441611,None,1011.3067946493102,None,1011.7896589734482,None,1,[0.008669905681017553],[0.5171757653151872],1012.2892335441611,None,[3 0 0 1 3 3 3 0],space,0,1.8076337502170645,0.0027007784083252773,None,1012.3058905519429,None,1,1014.1126850408946,None,None,1014.6122583608178,None,,,,,,,,,,,,,,,,,,,,,,,,,,,,,,,,,,,,,,,,,,,,,,,12_ZXF,12,24,F,2022-12-01_14h50.17.264,dynamic target,2022.1.3,120.0890068277893,
0,3,3,2,T,0,211,211,211,,,,,,,None,1015.6447166750004,None,1014.662284515176,1015.6613560434198,1015.1451427457177,None,1,[1.6166389835598238],[2.1242955882044043],1015.6447166750004,None,[3 3 3 2 2 0 2 1],space,0,1.804154947760253,0.0021988584448990878,None,1017.2683260921076,None,1,1019.0751378997047,None,None,1019.5747115403412,None,,,,,,,,,,,,,,,,,,,,,,,,,,,,,,,,,,,,,,,,,,,,,,,12_ZXF,12,24,F,2022-12-01_14h50.17.264,dynamic target,2022.1.3,120.0890068277893,
0,2,2,2,T,0,212,212,212,,,,,,,None,1020.5988482460234,None,1019.6163474530549,None,1020.0992579602425,None,1,[0.008654511329950765],[0.5172027054286445],1020.5988482460234,None,[2 2 3 2 1 2 0 3],space,0,1.6416191518837877,0.0030336812378664035,None,1020.6154969151976,None,1,1022.2558204274683,None,None,1022.755331849274,None,,,,,,,,,,,,,,,,,,,,,,,,,,,,,,,,,,,,,,,,,,,,,,,12_ZXF,12,24,F,2022-12-01_14h50.17.264,dynamic target,2022.1.3,120.0890068277893,
0,1,4,2,T,0,213,213,213,,,,,,,None,1023.7794740071222,None,1022.7969789870331,None,1023.279901681417,None,1,[0.008548995887394994],[0.5175365704017167],1023.7794740071222,None,[3 0 0 1 2 1 1 2],space,0,2.764157539138978,0.0023624234199814964,None,1023.7961268455983,None,1,1026.5604566605762,None,None,1027.0600373569562,None,,,,,,,,,,,,,,,,,,,,,,,,,,,,,,,,,,,,,,,,,,,,,,,12_ZXF,12,24,F,2022-12-01_14h50.17.264,dynamic target,2022.1.3,120.0890068277893,
