tar_letter,tar_pos,tar_ori,tar_pos_type,block,trials.thisRepN,trials.thisTrialN,trials.thisN,trials.thisIndex,instructions_key.keys,instructions_key.rt,instructions_key.started,instructions_key.stopped,instruction_text.started,instruction_text.stopped,fix_key.keys,fix_key.started,fix_key.stopped,fixcross.started,fixcross.stopped,roi.started,roi.stopped,roi.numLooks,roi.timesOn,roi.timesOff,RedFixCross.started,RedFixCross.stopped,distori,search_resp.keys,search_resp.corr,search_resp.rt,search_resp.started,search_resp.stopped,fixcross_shape.started,fixcross_shape.stopped,correct,feedback_text.started,feedback_text.stopped,break_key.keys,break_key.started,break_key.stopped,break_key.rt,text_q1.started,text_q1.stopped,key_resp1.keys,key_resp1.rt,key_resp1.started,key_resp1.stopped,text_q2.started,text_q2.stopped,key_resp_2.keys,key_resp_2.rt,key_resp_2.started,key_resp_2.stopped,image.started,image.stopped,text_q1_2.started,text_q1_2.stopped,slider.response,slider.rt,slider.started,slider.stopped,mouse.x,mouse.y,mouse.leftButton,mouse.midButton,mouse.rightButton,mouse.time,mouse.started,mouse.stopped,key_resp_3.keys,key_resp_3.rt,key_resp_3.started,key_resp_3.stopped,text_q4.started,text_q4.stopped,key_resp1_3.keys,key_resp1_3.rt,key_resp1_3.started,key_resp1_3.stopped,finish_text.started,finish_text.stopped,key_resp.keys,key_resp.rt,key_resp.started,key_resp.stopped,participant,group,age,gender,date,expName,psychopyVersion,frameRate,
,,,,,,,,,space,4.069500068479101,26.25135799016425,None,,,,,,,,,,,,,,,,,,,,,,,,,,,,,,,,,,,,,,,,,,,,,,,,,,,,,,,,,,,,,,,,,,,,,,,,,,13_AT,13,32,F,2022-12-01_16h55.14.827,dynamic target,2022.1.3,120.11074900835351,
0,8,3,0,mix,0,0,0,0,,,,,26.25135799016425,None,None,69.18984216621539,None,68.24177628994221,69.24812742160066,68.69026631263841,None,2,"[0.009596132425940596, 0.20917811167237232]","[0.08384051837856532, 0.717011751341488]",69.18984216621539,None,[0 3 0 2 1 2 2 1],space,0,1.895755902693054,0.0067687675582419615,None,69.4146628621238,None,1,71.31304026552607,None,None,71.81259530465759,None,,,,,,,,,,,,,,,,,,,,,,,,,,,,,,,,,,,,,,,,,,,,,,13_AT,13,32,F,2022-12-01_16h55.14.827,dynamic target,2022.1.3,120.11074900835351,
1,7,4,2,mix,0,1,1,1,,,,,,,None,72.84507029605447,None,71.85424436671019,None,72.34547808597927,None,1,[0.009226988731825259],[0.5174823694578663],72.84507029605447,None,[0 1 3 3 1 0 1 2],space,0,3.7713275382193387,0.0019592838652897626,None,72.86171704093431,None,1,76.63352851017407,None,None,77.1330979815095,None,,,,,,,,,,,,,,,,,,,,,,,,,,,,,,,,,,,,,,,,,,,,,,13_AT,13,32,F,2022-12-01_16h55.14.827,dynamic target,2022.1.3,120.11074900835351,
0,6,3,2,mix,0,2,2,2,,,,,,,None,78.16556655859677,None,77.19142169070255,None,77.6659794799707,None,1,[0.009240779505489627],[0.517541381137562],78.16556655859677,None,[1 0 0 3 0 3 0 2],space,0,1.539106649819587,0.0023954571297508664,None,78.18221458633707,None,1,79.72256462179212,None,None,80.22215365678058,None,,,,,,,,,,,,,,,,,,,,,,,,,,,,,,,,,,,,,,,,,,,,,,13_AT,13,32,F,2022-12-01_16h55.14.827,dynamic target,2022.1.3,120.11074900835351,
1,5,2,2,mix,0,3,3,3,,,,,,,None,81.24627913741642,None,80.26378155160273,81.26292363728498,80.74670424598662,None,2,"[0.008684979318786645, 0.9004954094380082]","[0.22510998140933225, 1.4079470767901512]",81.24627913741642,None,[3 0 2 1 3 2 1 2],space,0,3.071264645885094,0.0026725554307631683,None,82.15383285648204,None,1,85.22623120325807,None,None,85.72580099530678,None,,,,,,,,,,,,,,,,,,,,,,,,,,,,,,,,,,,,,,,,,,,,,,13_AT,13,32,F,2022-12-01_16h55.14.827,dynamic target,2022.1.3,120.11074900835351,
1,6,3,1,mix,0,4,4,4,,,,,,,None,86.75826636523561,None,85.7674401151744,None,86.25869083237558,None,1,[0.008691072911460651],[0.5179021862204536],86.75826636523561,None,[0 1 3 1 0 2 3 1],space,0,1.473426654101786,0.0021279802931530867,None,86.77491246868522,None,1,88.24866077170009,None,None,88.74825108954902,None,,,,,,,,,,,,,,,,,,,,,,,,,,,,,,,,,,,,,,,,,,,,,,13_AT,13,32,F,2022-12-01_16h55.14.827,dynamic target,2022.1.3,120.11074900835351,
1,5,1,2,mix,0,5,5,5,,,,,,,None,89.78069272652283,None,88.79825864240411,None,89.28111462793458,None,1,[0.008661887790367473],[0.5173585732263746],89.78069272652283,None,[2 3 3 2 1 3 1 2],space,0,3.2836508760228753,0.0025965458335122094,None,89.79734716857638,None,1,93.08622022836789,None,None,93.5858156776696,None,,,,,,,,,,,,,,,,,,,,,,,,,,,,,,,,,,,,,,,,,,,,,,13_AT,13,32,F,2022-12-01_16h55.14.827,dynamic target,2022.1.3,120.11074900835351,
1,4,2,2,mix,0,6,6,6,,,,,,,None,94.61825057961323,None,93.62743363030313,None,94.11868402678738,None,1,[0.00872731377967284],[0.5177299619281257],94.61825057961323,None,[0 0 3 1 0 3 3 1],space,0,3.9809546517790295,0.002010919084568741,None,94.63490566310065,None,1,98.6148641432519,None,None,99.11445542325164,None,,,,,,,,,,,,,,,,,,,,,,,,,,,,,,,,,,,,,,,,,,,,,,13_AT,13,32,F,2022-12-01_16h55.14.827,dynamic target,2022.1.3,120.11074900835351,
0,5,1,1,mix,0,7,7,7,,,,,,,None,100.13856903740452,None,99.14774310806024,None,99.63899222168402,None,1,[0.009671179883298464],[0.5176866653164325],100.13856903740452,None,[1 3 1 0 0 2 1 1],space,0,1.2290301174471097,0.0023710827408649493,None,100.1552202723069,None,0,101.39583460951326,None,None,101.89540792943735,None,,,,,,,,,,,,,,,,,,,,,,,,,,,,,,,,,,,,,,,,,,,,,,13_AT,13,32,F,2022-12-01_16h55.14.827,dynamic target,2022.1.3,120.11074900835351,
1,4,2,2,mix,0,8,8,8,,,,,,,None,102.92786399861143,None,101.93704608715416,None,102.42829135218926,None,1,[0.008614421876700362],[0.5175449090093025],102.92786399861143,None,[2 2 3 3 3 2 3 1],space,0,4.151812697586138,0.00239192925801035,None,102.94451876138191,None,1,107.0993506470586,None,None,107.59890023402404,None,,,,,,,,,,,,,,,,,,,,,,,,,,,,,,,,,,,,,,,,,,,,,,13_AT,13,32,F,2022-12-01_16h55.14.827,dynamic target,2022.1.3,120.11074900835351,
0,3,3,2,mix,0,9,9,9,,,,,,,None,108.6313646418057,None,107.64053326029534,None,108.13178077033808,None,1,[0.00980363543931162],[0.5179002619297535],108.6313646418057,None,[0 3 3 0 2 0 2 0],space,0,2.288038586582843,0.0022848102344141807,None,108.64799503019094,None,1,110.9377410779307,None,None,111.43730926640201,None,,,,,,,,,,,,,,,,,,,,,,,,,,,,,,,,,,,,,,,,,,,,,,13_AT,13,32,F,2022-12-01_16h55.14.827,dynamic target,2022.1.3,120.11074900835351,
0,2,3,2,mix,0,10,10,10,,,,,,,None,112.46143763347573,None,111.47894549982811,112.47809784841229,111.9618633834798,None,2,"[0.008602234684076393, 0.1500936329284741]","[0.017154758443211904, 0.6581642814526276]",112.46143763347573,None,[2 2 0 2 2 0 2 3],space,0,1.9491698083475058,0.003280632274254458,None,112.61966012481571,None,1,114.56798866718964,None,None,115.0675597421061,None,,,,,,,,,,,,,,,,,,,,,,,,,,,,,,,,,,,,,,,,,,,,,,13_AT,13,32,F,2022-12-01_16h55.14.827,dynamic target,2022.1.3,120.11074900835351,
1,1,2,2,mix,0,11,11,11,,,,,,,None,116.10001709414064,None,115.10919661696244,None,115.60045374847323,None,1,[0.008866183645295678],[0.5178082165402884],116.10001709414064,None,[1 0 3 3 2 3 1 1],space,0,2.754502796164161,0.0022248364075494464,None,116.11667121548089,None,1,118.87266146187903,None,None,119.37224825185622,None,,,,,,,,,,,,,,,,,,,,,,,,,,,,,,,,,,,,,,,,,,,,,,13_AT,13,32,F,2022-12-01_16h55.14.827,dynamic target,2022.1.3,120.11074900835351,
0,8,2,2,mix,0,12,12,12,,,,,,,None,120.3963727703449,None,119.40554459598934,None,119.89680878324361,None,1,[0.008696845794474939],[0.5176331058064534],120.3963727703449,None,[1 2 3 3 1 3 3 1],space,0,1.8025745415325218,0.0022867345287522767,None,120.41302143951907,None,1,122.21983036067104,None,None,122.71939662485165,None,,,,,,,,,,,,,,,,,,,,,,,,,,,,,,,,,,,,,,,,,,,,,,13_AT,13,32,F,2022-12-01_16h55.14.827,dynamic target,2022.1.3,120.11074900835351,
1,1,2,1,mix,0,13,13,13,,,,,,,None,123.75186359835789,None,122.76102933040602,None,123.25227748187899,None,1,[0.008669905681017553],[0.5178335530763434],123.75186359835789,None,[2 3 0 3 0 3 0 2],space,0,2.5107460871950025,0.0020866079721599817,None,123.76851034323772,None,1,126.28304020459109,None,None,126.78261480737565,None,,,,,,,,,,,,,,,,,,,,,,,,,,,,,,,,,,,,,,,,,,,,,,13_AT,13,32,F,2022-12-01_16h55.14.827,dynamic target,2022.1.3,120.11074900835351,
1,8,3,2,mix,0,14,14,14,,,,,,,None,127.8150718386969,None,126.83262620881578,None,127.31550528587468,None,1,[0.008692997205798747],[0.5171469009073917],127.8150718386969,None,[0 2 1 3 0 2 0 2],space,0,2.447970812958374,0.00268602549112984,None,127.83172692218432,None,1,130.27964542962582,None,None,130.779222277418,None,,,,,,,,,,,,,,,,,,,,,,,,,,,,,,,,,,,,,,,,,,,,,,13_AT,13,32,F,2022-12-01_16h55.14.827,dynamic target,2022.1.3,120.11074900835351,
0,7,4,2,mix,0,15,15,15,,,,,,,None,131.81168315732793,None,130.82923560315248,None,131.31210377587922,None,1,[0.008600310386100318],[0.51717287887368],131.81168315732793,None,[1 1 0 3 0 0 0 2],space,0,2.6265385418446385,0.002479163904354209,None,131.82833246793598,None,1,134.4594402165203,None,None,134.9590135364444,None,,,,,,,,,,,,,,,,,,,,,,,,,,,,,,,,,,,,,,,,,,,,,,13_AT,13,32,F,2022-12-01_16h55.14.827,dynamic target,2022.1.3,120.11074900835351,
1,6,3,2,mix,0,16,16,16,,,,,,,None,135.9914657570298,None,135.00065233559508,None,135.4918879791585,None,1,[0.008730520934477681],[0.5177953879174311],135.9914657570298,None,[2 1 2 3 1 3 3 2],space,0,1.6465460658364464,0.001964415318070678,None,136.0081163504983,None,1,137.65671785394807,None,None,138.1563091339478,None,,,,,,,,,,,,,,,,,,,,,,,,,,,,,,,,,,,,,,,,,,,,,,13_AT,13,32,F,2022-12-01_16h55.14.827,dynamic target,2022.1.3,120.11074900835351,
0,5,4,2,mix,0,17,17,17,,,,,,,None,139.18876488240858,None,138.20631251749728,None,138.6891733137636,None,1,[0.008177607185643865],[0.5168646711535985],139.18876488240858,None,[3 2 2 1 3 0 0 2],space,0,2.5448609296872746,0.0028078974319214467,None,139.2054087408469,None,1,141.7532401098506,None,None,142.25281342977468,None,,,,,,,,,,,,,,,,,,,,,,,,,,,,,,,,,,,,,,,,,,,,,,13_AT,13,32,F,2022-12-01_16h55.14.827,dynamic target,2022.1.3,120.11074900835351,
1,4,2,2,mix,0,18,18,18,,,,,,,None,143.27695558761843,None,142.2861248475383,None,142.7773800547584,None,1,[0.008724106624868],[0.5176597252066131],143.27695558761843,None,[3 3 0 1 0 3 3 0],space,0,3.1613084460186656,0.002356971253902884,None,143.2935997667737,None,1,146.45758038657004,None,None,146.95716044152067,None,,,,,,,,,,,,,,,,,,,,,,,,,,,,,,,,,,,,,,,,,,,,,,13_AT,13,32,F,2022-12-01_16h55.14.827,dynamic target,2022.1.3,120.11074900835351,
0,3,4,2,mix,0,19,19,19,,,,,,,None,147.98128688430006,None,146.998807258562,None,147.4817107100098,None,1,[0.008654511329950765],[0.5171180365032342],147.98128688430006,None,[3 1 0 2 0 2 2 2],space,0,2.1048224053265585,0.0028460625908337533,None,147.9979365156214,None,1,150.1044843421805,None,None,150.60406728357265,None,,,,,,,,,,,,,,,,,,,,,,,,,,,,,,,,,,,,,,,,,,,,,,13_AT,13,32,F,2022-12-01_16h55.14.827,dynamic target,2022.1.3,120.11074900835351,
0,2,1,2,mix,0,20,20,20,,,,,,,None,151.6365166177202,None,150.65408093002407,None,151.13694012270935,None,1,[0.009497993443801533],[0.5175291939413],151.6365166177202,None,[2 2 1 2 1 1 0 3],space,0,2.1292615779166226,0.0023159196534834336,None,151.65317298406808,None,1,153.78469333331668,None,None,154.2842788404334,None,,,,,,,,,,,,,,,,,,,,,,,,,,,,,,,,,,,,,,,,,,,,,,13_AT,13,32,F,2022-12-01_16h55.14.827,dynamic target,2022.1.3,120.11074900835351,
0,1,1,2,mix,0,21,21,21,,,,,,,None,155.31672400527532,None,154.32590673525192,None,154.81715039670962,None,1,[0.009446037511224858],[0.5174692201180733],155.31672400527532,None,[0 0 1 2 3 1 2 0],space,0,1.9211171327297052,0.002445809484925121,None,155.3333816544873,None,0,157.2650733941664,None,None,157.76465793913957,None,,,,,,,,,,,,,,,,,,,,,,,,,,,,,,,,,,,,,,,,,,,,,,13_AT,13,32,F,2022-12-01_16h55.14.827,dynamic target,2022.1.3,120.11074900835351,
0,8,2,2,mix,0,22,22,22,,,,,,,None,158.79710441891365,None,157.8062774953505,None,158.29753847544998,None,1,[0.008772213965130504],[0.5093567182047991],158.79710441891365,None,[1 0 0 0 3 0 0 3],space,0,1.9039428106334526,0.0014862283060210757,None,158.8054519733123,None,1,160.72047515945087,None,None,161.22004783794108,None,,,,,,,,,,,,,,,,,,,,,,,,,,,,,,,,,,,,,,,,,,,,,,13_AT,13,32,F,2022-12-01_16h55.14.827,dynamic target,2022.1.3,120.11074900835351,
0,7,1,2,mix,0,23,23,23,,,,,,,None,162.2525199429001,None,161.27006821942268,None,161.75293158141358,None,1,[0.008709353704034584],[0.5173236152222671],162.2525199429001,None,[3 1 1 1 3 2 3 0],space,0,2.2010742979509814,0.0024541480888728984,None,162.26915963203646,None,1,164.4672916559066,None,None,164.96686722084195,None,,,,,,,,,,,,,,,,,,,,,,,,,,,,,,,,,,,,,,,,,,,,,,13_AT,13,32,F,2022-12-01_16h55.14.827,dynamic target,2022.1.3,120.11074900835351,
1,8,1,1,mix,0,24,24,24,,,,,,,None,165.99932553502367,None,165.0084996056794,166.00765195426357,165.49975032288057,None,2,"[0.008711919428606052, 0.12514452248069574]","[0.10885858268738957, 0.6251648879224376]",165.99932553502367,None,[1 2 3 1 1 2 0 2],space,0,3.497853960216162,0.002921751482062973,None,166.1242202200301,None,1,169.6212486293407,None,None,170.12082515641958,None,,,,,,,,,,,,,,,,,,,,,,,,,,,,,,,,,,,,,,,,,,,,,,13_AT,13,32,F,2022-12-01_16h55.14.827,dynamic target,2022.1.3,120.11074900835351,
1,7,2,2,mix,0,25,25,25,,,,,,,None,171.1532831819597,None,170.16247614276654,None,170.65370922060538,None,1,[0.008653549182781717],[0.5090815441944869],171.1532831819597,None,[1 1 0 1 0 1 0 2],space,0,1.9958900580422778,0.002492313251423184,None,171.16162913278094,None,0,173.1682403648192,None,None,173.6678140054566,None,,,,,,,,,,,,,,,,,,,,,,,,,,,,,,,,,,,,,,,,,,,,,,13_AT,13,32,F,2022-12-01_16h55.14.827,dynamic target,2022.1.3,120.11074900835351,
0,6,3,2,mix,0,26,26,26,,,,,,,None,174.70027488536653,None,173.71783278335715,None,174.20069582463475,None,1,[0.008697807941643987],[0.517237663432752],174.70027488536653,None,[1 0 3 2 2 3 0 2],space,0,3.080049367763422,0.00254907991620712,None,174.7169088016235,None,1,177.80598885128347,None,None,178.3055429282678,None,,,,,,,,,,,,,,,,,,,,,,,,,,,,,,,,,,,,,,,,,,,,,,13_AT,13,32,F,2022-12-01_16h55.14.827,dynamic target,2022.1.3,120.11074900835351,
1,5,2,2,mix,0,27,27,27,,,,,,,None,179.3379861688154,None,178.3555084673717,None,178.83842635101973,None,1,[0.008641682703455444],[0.5175391361262882],179.3379861688154,None,[2 1 0 1 0 1 3 0],space,0,3.4823053456602793,0.0025179705007758457,None,179.35466177810304,None,1,182.83503285891857,None,None,183.33461034814462,None,,,,,,,,,,,,,,,,,,,,,,,,,,,,,,,,,,,,,,,,,,,,,,13_AT,13,32,F,2022-12-01_16h55.14.827,dynamic target,2022.1.3,120.11074900835351,
1,4,3,2,mix,0,28,28,28,,,,,,,None,184.35874096022962,None,183.3846304089093,None,183.85917248310943,None,1,[0.008671509258419974],[0.5174961602315307],184.35874096022962,None,[2 2 3 2 3 0 3 1],space,0,1.9493911021309032,0.002557097810495179,None,184.375394440136,None,1,186.32374863976293,None,None,186.82332709113615,None,,,,,,,,,,,,,,,,,,,,,,,,,,,,,,,,,,,,,,,,,,,,,,13_AT,13,32,F,2022-12-01_16h55.14.827,dynamic target,2022.1.3,120.11074900835351,
1,3,3,2,mix,0,29,29,29,,,,,,,None,187.84744808174946,None,186.86498032249074,None,187.3478719074592,None,1,[0.008657077054522233],[0.5174121327363537],187.84744808174946,None,[1 2 3 0 3 2 0 0],space,0,5.131707355329127,0.002562229256000137,None,187.86411118312753,None,1,193.00140505518357,None,None,193.500978375104,None,,,,,,,,,,,,,,,,,,,,,,,,,,,,,,,,,,,,,,,,,,,,,,13_AT,13,32,F,2022-12-01_16h55.14.827,dynamic target,2022.1.3,120.11074900835351,
0,2,3,2,mix,0,30,30,30,,,,,,,None,194.52511027004948,None,193.53429300002608,194.5334370100063,194.02553441647615,None,2,"[0.0664663904462941, 0.08407367864492699]","[0.07480050685990136, 0.5915227802724985]",194.52511027004948,None,[2 0 3 0 2 3 2 2],space,0,2.108549441683863,0.0029397115504252724,None,194.6166992781,None,1,196.72324325607042,None,None,197.22282202816058,None,,,,,,,,,,,,,,,,,,,,,,,,,,,,,,,,,,,,,,,,,,,,,,13_AT,13,32,F,2022-12-01_16h55.14.827,dynamic target,2022.1.3,120.11074900835351,
0,1,3,2,mix,0,31,31,31,,,,,,,None,198.24695135737784,None,197.25613216306374,None,197.74737390022347,None,1,[0.009430963873455767],[0.5176100142816722],198.24695135737784,None,[0 0 0 0 2 1 3 3],space,0,2.6203211486026703,0.0023608198389410973,None,198.26360772372936,None,1,200.886385845919,None,None,201.38595275152983,None,,,,,,,,,,,,,,,,,,,,,,,,,,,,,,,,,,,,,,,,,,,,,,13_AT,13,32,F,2022-12-01_16h55.14.827,dynamic target,2022.1.3,120.11074900835351,
1,8,2,2,mix,0,32,32,32,,,,,,,None,202.4100817600338,None,201.42759058853335,None,201.91050751003786,None,1,[0.008594858223659685],[0.5179570285981754],202.4100817600338,None,[3 3 0 1 3 0 2 0],space,0,2.8569005624412966,0.002186350535339443,None,202.42673331564947,None,1,205.28264540364762,None,None,205.78222096857934,None,,,,,,,,,,,,,,,,,,,,,,,,,,,,,,,,,,,,,,,,,,,,,,13_AT,13,32,F,2022-12-01_16h55.14.827,dynamic target,2022.1.3,120.11074900835351,
1,1,2,1,mix,0,33,33,33,,,,,,,None,206.81468281063644,None,205.82385880558286,None,206.3151031084708,None,1,[0.00868626217925339],[0.517723547618516],206.81468281063644,None,[2 2 2 1 2 1 1 1],space,0,2.324737755643582,0.002247927935968619,None,206.83133051766345,None,1,209.15435883011742,None,None,209.65393952650192,None,,,,,,,,,,,,,,,,,,,,,,,,,,,,,,,,,,,,,,,,,,,,,,13_AT,13,32,F,2022-12-01_16h55.14.827,dynamic target,2022.1.3,120.11074900835351,
0,8,3,2,mix,0,34,34,34,,,,,,,None,210.68639495424213,None,209.69556613845634,None,210.1868309671445,None,1,[0.00861859118231223],[0.5176234843384009],210.68639495424213,None,[2 2 2 2 0 2 0 2],space,0,3.140370205266663,0.0021825019430252723,None,210.7030465098578,None,1,213.84205588982877,None,None,214.3416227954396,None,,,,,,,,,,,,,,,,,,,,,,,,,,,,,,,,,,,,,,,,,,,,,,13_AT,13,32,F,2022-12-01_16h55.14.827,dynamic target,2022.1.3,120.11074900835351,
1,7,2,2,mix,0,35,35,35,,,,,,,None,215.37408944822891,None,214.38325967029596,None,214.87450269032342,None,1,[0.008655473477119813],[0.517787370026781],215.37408944822891,None,[2 3 2 3 1 0 2 1],space,0,4.82036848622738,0.0022896209666214418,None,215.390732665237,None,1,220.21163703842103,None,None,220.7112177348019,None,,,,,,,,,,,,,,,,,,,,,,,,,,,,,,,,,,,,,,,,,,,,,,13_AT,13,32,F,2022-12-01_16h55.14.827,dynamic target,2022.1.3,120.11074900835351,
1,6,3,2,mix,0,36,36,36,,,,,,,None,221.73534738473973,None,220.74452851113892,None,221.235768003291,None,1,[0.008635268393845763],[0.5178011608004454],221.73534738473973,None,[0 1 1 1 2 2 0 3],space,0,2.2027538857146283,0.002103285187331494,None,221.75199958178564,None,1,223.95845770418236,None,None,224.45803679698582,None,,,,,,,,,,,,,,,,,,,,,,,,,,,,,,,,,,,,,,,,,,,,,,13_AT,13,32,F,2022-12-01_16h55.14.827,dynamic target,2022.1.3,120.11074900835351,
0,5,1,2,mix,0,37,37,37,,,,,,,None,225.48216484334262,None,224.49134500759465,None,224.9825954040789,None,1,[0.008529752947652014],[0.5176286157875438],225.48216484334262,None,[0 2 2 3 1 1 1 1],space,0,3.208492129804654,0.0024127757715177722,None,225.49882024754697,None,1,228.70441436202964,None,None,229.2040062834596,None,,,,,,,,,,,,,,,,,,,,,,,,,,,,,,,,,,,,,,,,,,,,,,13_AT,13,32,F,2022-12-01_16h55.14.827,dynamic target,2022.1.3,120.11074900835351,
1,4,4,2,mix,0,38,38,38,,,,,,,None,230.22813914055223,None,229.2540273063678,None,229.7285607212507,None,1,[0.008663812084705569],[0.5169403600448277],230.22813914055223,None,[0 0 2 1 0 1 0 3],space,0,2.6870312829269096,0.0029082814253342804,None,230.24478877187357,None,1,232.93418241727704,None,None,233.43375124718222,None,,,,,,,,,,,,,,,,,,,,,,,,,,,,,,,,,,,,,,,,,,,,,,13_AT,13,32,F,2022-12-01_16h55.14.827,dynamic target,2022.1.3,120.11074900835351,
0,3,3,2,mix,0,39,39,39,,,,,,,None,234.46620507134503,None,233.48375078214303,234.48287041773438,233.96662761419066,None,1,[0.03310811612391262],[0.5331220672560448],234.46620507134503,None,[3 0 1 1 2 3 2 2],space,0,2.1600368085382797,0.0029053949838271365,None,234.4995126725953,None,1,236.66434928241506,None,None,237.16391522587872,None,,,,,,,,,,,,,,,,,,,,,,,,,,,,,,,,,,,,,,,,,,,,,,13_AT,13,32,F,2022-12-01_16h55.14.827,dynamic target,2022.1.3,120.11074900835351,
1,2,1,2,mix,0,40,40,40,,,,,,,None,238.1963815579511,None,237.20555338359554,None,237.69679576218914,None,1,[0.00932833487240714],[0.5176539523199608],238.1963815579511,None,[2 0 2 1 1 0 0 2],space,0,2.525888675758324,0.0022357407433446497,None,238.21302509567613,None,1,240.73591312711505,None,None,241.2354604690692,None,,,,,,,,,,,,,,,,,,,,,,,,,,,,,,,,,,,,,,,,,,,,,,13_AT,13,32,F,2022-12-01_16h55.14.827,dynamic target,2022.1.3,120.11074900835351,
0,1,1,2,mix,0,41,41,41,,,,,,,None,242.25960455121094,None,241.28545134471278,None,241.760014586147,None,1,[0.008743670274270698],[0.5173232945053314],242.25960455121094,None,[1 0 0 2 3 3 3 0],space,0,2.3666014085247298,0.0028082181488571223,None,242.27624359891706,None,1,244.64090144183865,None,None,245.14047957249858,None,,,,,,,,,,,,,,,,,,,,,,,,,,,,,,,,,,,,,,,,,,,,,,13_AT,13,32,F,2022-12-01_16h55.14.827,dynamic target,2022.1.3,120.11074900835351,
0,8,4,2,mix,0,42,42,42,,,,,,,None,246.16460697742514,None,245.17379836672262,None,245.6650304824143,None,1,[0.008606083272752585],[0.5174692201217113],246.16460697742514,None,[1 0 3 3 1 2 0 1],space,0,2.7165271788908285,0.002368517016293481,None,246.18126174019562,None,1,248.89563752975664,None,None,249.39519994534857,None,,,,,,,,,,,,,,,,,,,,,,,,,,,,,,,,,,,,,,,,,,,,,,13_AT,13,32,F,2022-12-01_16h55.14.827,dynamic target,2022.1.3,120.11074900835351,
0,7,3,2,mix,0,43,43,43,,,,,,,None,250.42765537309242,None,249.445203649615,None,249.92807823665134,None,1,[0.009634939018724253],[0.5175144410241046],250.42765537309242,None,[2 1 1 3 1 1 3 2],space,0,2.1654459983874403,0.00245158236430143,None,250.4443274545083,None,1,252.6091390485053,None,None,253.1087123684294,None,,,,,,,,,,,,,,,,,,,,,,,,,,,,,,,,,,,,,,,,,,,,,,13_AT,13,32,F,2022-12-01_16h55.14.827,dynamic target,2022.1.3,120.11074900835351,
0,6,4,2,mix,0,44,44,44,,,,,,,None,254.1411697204676,None,253.16704634052076,None,253.64160637480018,None,1,[0.008662529220600845],[0.5175635105151741],254.1411697204676,None,[3 3 1 1 1 1 1 0],space,0,2.8522360742899764,0.002362102703045821,None,254.15783474613636,None,1,257.01373272264755,None,None,257.5133179090473,None,,,,,,,,,,,,,,,,,,,,,,,,,,,,,,,,,,,,,,,,,,,,,,13_AT,13,32,F,2022-12-01_16h55.14.827,dynamic target,2022.1.3,120.11074900835351,
0,5,3,2,mix,0,45,45,45,,,,,,,None,258.5374366867247,None,257.54661585675785,None,258.03786304608366,None,1,[0.00864681415623636],[0.5089195828004449],258.5374366867247,None,[2 2 2 2 3 3 3 2],space,0,3.5681471295865776,0.0027508100465638563,None,258.5457813546818,None,1,262.1177305392157,None,None,262.617308669872,None,,,,,,,,,,,,,,,,,,,,,,,,,,,,,,,,,,,,,,,,,,,,,,13_AT,13,32,F,2022-12-01_16h55.14.827,dynamic target,2022.1.3,120.11074900835351,
1,6,4,1,mix,0,46,46,46,,,,,,,None,263.64143767837595,None,262.65062714338274,None,263.1418682391122,None,1,[0.0086387962619483],[0.5176430479914416],263.64143767837595,None,[2 2 3 2 0 0 2 1],space,0,4.854871715357149,0.0022055934750824235,None,263.6580934032936,None,1,268.51230184985616,None,None,269.0118575304179,None,,,,,,,,,,,,,,,,,,,,,,,,,,,,,,,,,,,,,,,,,,,,,,13_AT,13,32,F,2022-12-01_16h55.14.827,dynamic target,2022.1.3,120.11074900835351,
0,7,3,1,mix,0,47,47,47,,,,,,,None,270.04433508753937,None,269.0618875333639,None,269.54476115825673,None,1,[0.008610252574726474],[0.5174974430956354],270.04433508753937,None,[0 2 2 1 1 1 2 0],space,0,1.668712968174077,0.0026353524226578884,None,270.0609901710268,None,1,271.7345699700454,None,None,272.2341538735847,None,,,,,,,,,,,,,,,,,,,,,,,,,,,,,,,,,,,,,,,,,,,,,,13_AT,13,32,F,2022-12-01_16h55.14.827,dynamic target,2022.1.3,120.11074900835351,
1,6,3,2,mix,0,48,48,48,,,,,,,None,273.266602566302,None,272.2757917105919,273.27492385408914,272.76702510914765,None,2,"[0.008631099088233896, 0.13344111516562407]","[0.017607608911930583, 0.6334621220412373]",273.266602566302,None,[3 3 2 0 3 1 0 2],space,0,2.6977252249635058,0.0030676770911668427,None,273.3998230291145,None,1,276.0975309065616,None,None,276.59708819070437,None,,,,,,,,,,,,,,,,,,,,,,,,,,,,,,,,,,,,,,,,,,,,,,13_AT,13,32,F,2022-12-01_16h55.14.827,dynamic target,2022.1.3,120.11074900835351,
1,5,2,2,mix,0,49,49,49,,,,,,,None,277.6295638235315,None,276.64711594864275,277.6462160205774,277.1299963085621,None,1,[0.09137669430128881],[0.5918297051321133],277.6295638235315,None,[3 0 3 2 0 3 2 3],space,0,3.2720281415167847,0.0028656262475124095,None,277.7211537937292,None,1,280.99338203293155,None,None,281.49296721933496,None,,,,,,,,,,,,,,,,,,,,,,,,,,,,,,,,,,,,,,,,,,,,,,13_AT,13,32,F,2022-12-01_16h55.14.827,dynamic target,2022.1.3,120.11074900835351,
1,4,2,2,mix,0,50,50,50,,,,,,,None,282.5170821163483,None,281.5346361657539,None,282.0175155635261,None,1,[0.009047708696016343],[0.5176148250175174],282.5170821163483,None,[3 1 2 1 3 0 0 3],space,0,3.611071709776297,0.0023768556166032795,None,282.5337481041679,None,1,286.1473313091883,None,None,286.6469075155539,None,,,,,,,,,,,,,,,,,,,,,,,,,,,,,,,,,,,,,,,,,,,,,,13_AT,13,32,F,2022-12-01_16h55.14.827,dynamic target,2022.1.3,120.11074900835351,
1,3,2,2,mix,0,51,51,51,,,,,,,None,287.6710384483522,None,286.68022214047596,287.6793651883054,287.1714641983526,None,1,[0.05812714257990592],[0.5669723193532263],287.6710384483522,None,[3 0 3 3 2 1 0 0],space,0,8.134921888107783,0.002453827368299244,None,287.73765140584146,None,1,295.87241002082374,None,None,296.3719846236083,None,,,,,,,,,,,,,,,,,,,,,,,,,,,,,,,,,,,,,,,,,,,,,,13_AT,13,32,F,2022-12-01_16h55.14.827,dynamic target,2022.1.3,120.11074900835351,
1,2,2,2,mix,0,52,52,52,,,,,,,None,297.4044435792239,None,296.42199345932386,None,296.9048677256469,None,1,[0.008701015096448828],[0.5172937886673026],297.4044435792239,None,[3 1 3 1 0 1 1 1],space,0,8.323240013640316,0.0025192533576046117,None,297.4211047563076,None,1,305.74737614523474,None,None,306.2469366365323,None,,,,,,,,,,,,,,,,,,,,,,,,,,,,,,,,,,,,,,,,,,,,,,13_AT,13,32,F,2022-12-01_16h55.14.827,dynamic target,2022.1.3,120.11074900835351,
0,1,2,2,mix,0,53,53,53,,,,,,,None,307.2793959128612,None,306.2885664556452,None,306.77982294572575,None,1,[0.008665736379043665],[0.5175086681410903],307.2793959128612,None,[3 3 3 3 2 2 3 2],space,0,3.0876371789017867,0.0025680021390144248,None,307.29604682704667,None,1,310.385089032261,None,None,310.88467165293986,None,,,,,,,,,,,,,,,,,,,,,,,,,,,,,,,,,,,,,,,,,,,,,,13_AT,13,32,F,2022-12-01_16h55.14.827,dynamic target,2022.1.3,120.11074900835351,
1,8,2,2,mix,0,54,54,54,,,,,,,None,311.9171241942422,None,310.93468658225174,None,311.4175566792692,None,1,[0.008646172722365009],[0.5173640253924532],311.9171241942422,None,[1 1 2 1 2 3 3 2],space,0,4.913494684304169,0.002576340746600181,None,311.9337776741486,None,1,316.84627041394924,None,None,317.3458523931942,None,,,,,,,,,,,,,,,,,,,,,,,,,,,,,,,,,,,,,,,,,,,,,,13_AT,13,32,F,2022-12-01_16h55.14.827,dynamic target,2022.1.3,120.11074900835351,
0,7,4,2,mix,0,55,55,55,,,,,,,None,318.3783058966437,None,317.3874741944164,318.3866451445101,317.8787470409952,None,1,[0.058147026949882274],[0.5588697596249403],318.3783058966437,None,[1 2 1 1 0 1 1 2],space,0,1.7868735870542878,0.002424321533908369,None,318.4365994906366,None,1,320.2267379339537,None,None,320.7263086881532,None,,,,,,,,,,,,,,,,,,,,,,,,,,,,,,,,,,,,,,,,,,,,,,13_AT,13,32,F,2022-12-01_16h55.14.827,dynamic target,2022.1.3,120.11074900835351,
1,8,3,1,mix,0,56,56,56,,,,,,,None,321.75876571947447,None,320.7763277867707,None,321.25919050732773,None,1,[0.008665736379043665],[0.5175696041114861],321.75876571947447,None,[1 3 0 1 3 1 0 3],space,0,2.495440575086832,0.002467618145601591,None,321.7754208029619,None,1,324.27329878798264,None,None,324.7728749943446,None,,,,,,,,,,,,,,,,,,,,,,,,,,,,,,,,,,,,,,,,,,,,,,13_AT,13,32,F,2022-12-01_16h55.14.827,dynamic target,2022.1.3,120.11074900835351,
0,8,1,0,mix,0,57,57,57,,,,,,,None,325.79701362432024,None,324.82289056509035,None,325.297435525732,None,1,[0.008682092877279501],[0.5175590204962646],325.79701362432024,None,[0 2 2 3 0 3 1 0],space,0,1.977047693944769,0.0024964825533970725,None,325.81365812419244,None,1,327.79528849493363,None,None,328.2948839442353,None,,,,,,,,,,,,,,,,,,,,,,,,,,,,,,,,,,,,,,,,,,,,,,13_AT,13,32,F,2022-12-01_16h55.14.827,dynamic target,2022.1.3,120.11074900835351,
1,7,4,2,mix,0,58,58,58,,,,,,,None,329.31901648061466,None,328.3281956827159,None,328.81944415490943,None,1,[0.008642644850624492],[0.5168909698331845],329.31901648061466,None,[2 1 2 3 2 1 3 2],space,0,1.672119609615038,0.0032793494137877133,None,329.33566835694364,None,1,331.0092292337431,None,None,331.50882885234677,None,,,,,,,,,,,,,,,,,,,,,,,,,,,,,,,,,,,,,,,,,,,,,,13_AT,13,32,F,2022-12-01_16h55.14.827,dynamic target,2022.1.3,120.11074900835351,
0,6,4,2,mix,0,59,59,59,,,,,,,None,332.54128716653213,None,331.55045482287096,None,332.04170265363064,None,1,[0.008479079879180063],[0.5175333632469119],332.54128716653213,None,[2 3 0 2 3 0 2 0],space,0,3.4883152358888765,0.0022973181476118043,None,332.55793326998173,None,1,336.04665418227523,None,space,336.5545378535826,None,3.7213103318244976,,,,,,,,,,,,,,,,,,,,,,,,,,,,,,,,,,,,,,,,,,,,,13_AT,13,32,F,2022-12-01_16h55.14.827,dynamic target,2022.1.3,120.11074900835351,
0,7,4,1,mix,0,60,60,60,,,,,,,None,341.3171819871968,None,340.3429928605474,None,340.81756925132504,None,1,[0.016942765410931315],[0.5170035410228593],341.3171819871968,None,[2 2 0 1 2 3 0 1],space,0,1.6407439993345179,0.00297691456580651,None,341.33381397915946,None,0,342.9824016918392,None,None,343.48199072682763,None,,,,,,,,,,,,,,,,,,,,,,,,,,,,,,,,,,,,,,,,,,,,,,13_AT,13,32,F,2022-12-01_16h55.14.827,dynamic target,2022.1.3,120.11074900835351,
0,6,2,2,mix,0,61,61,61,,,,,,,None,344.5144497145149,None,343.52363177098596,None,344.0065432403244,None,1,[0.00863558910714346],[0.5164214421492943],344.5144497145149,None,[0 1 0 3 2 3 3 0],space,0,1.9083690070692683,0.0032729350969020743,None,344.5227741773888,None,1,346.42948730078206,None,None,346.9290615828533,None,,,,,,,,,,,,,,,,,,,,,,,,,,,,,,,,,,,,,,,,,,,,,,13_AT,13,32,F,2022-12-01_16h55.14.827,dynamic target,2022.1.3,120.11074900835351,
0,5,3,2,mix,0,62,62,62,,,,,,,None,347.96152024982365,None,346.97071000347205,None,347.4619571928015,None,1,[0.00861859118231223],[0.5089705765858525],347.96152024982365,None,[3 3 0 2 2 3 1 2],space,0,3.24403640186938,0.002524384814023506,None,347.9698556170297,None,1,351.21709978778017,None,None,351.7166708626966,None,,,,,,,,,,,,,,,,,,,,,,,,,,,,,,,,,,,,,,,,,,,,,,13_AT,13,32,F,2022-12-01_16h55.14.827,dynamic target,2022.1.3,120.11074900835351,
1,4,2,2,mix,0,63,63,63,,,,,,,None,352.74079826761954,None,351.7666790569783,None,352.24123203551426,None,1,[0.033239288819459034],[0.5333247595335706],352.74079826761954,None,[3 3 1 1 1 2 2 2],space,0,2.184961865314108,0.0026504260531510226,None,352.77410169956784,None,1,354.9639262264245,None,None,355.46348447271083,None,,,,,,,,,,,,,,,,,,,,,,,,,,,,,,,,,,,,,,,,,,,,,,13_AT,13,32,F,2022-12-01_16h55.14.827,dynamic target,2022.1.3,120.11074900835351,
0,3,1,2,mix,0,64,64,64,,,,,,,None,356.49594310761313,None,355.51350806134724,None,355.9963653297418,None,1,[0.007788258408254478],[0.5164426093797374],356.49594310761313,None,[2 0 2 0 2 0 2 3],space,0,2.9738068624828884,0.0026456153209437616,None,356.51261615117255,None,1,359.4850772619975,None,None,359.9846509026385,None,,,,,,,,,,,,,,,,,,,,,,,,,,,,,,,,,,,,,,,,,,,,,,13_AT,13,32,F,2022-12-01_16h55.14.827,dynamic target,2022.1.3,120.11074900835351,
1,2,1,2,mix,0,65,65,65,,,,,,,None,361.0171024817937,None,360.02627911817035,None,360.5175253453526,None,1,[0.00828921622451162],[0.5171315065599629],361.0171024817937,None,[3 2 2 3 0 1 3 0],space,0,3.2038436774346337,0.0025455520444666035,None,361.03375820671135,None,1,364.2393667533979,None,None,364.7389490533598,None,,,,,,,,,,,,,,,,,,,,,,,,,,,,,,,,,,,,,,,,,,,,,,13_AT,13,32,F,2022-12-01_16h55.14.827,dynamic target,2022.1.3,120.11074900835351,
1,1,1,2,mix,0,66,66,66,,,,,,,None,365.7714112161302,None,364.78895147476214,None,365.27182381679086,None,1,[0.009395364442752907],[0.5175186103297165],365.7714112161302,None,[0 1 0 1 3 3 3 0],space,0,2.65686188413747,0.001984299688047031,None,365.7880566781496,None,1,368.44412989367993,None,None,368.94370577932494,None,,,,,,,,,,,,,,,,,,,,,,,,,,,,,,,,,,,,,,,,,,,,,,13_AT,13,32,F,2022-12-01_16h55.14.827,dynamic target,2022.1.3,120.11074900835351,
1,8,1,2,mix,0,67,67,67,,,,,,,None,369.97616184850267,None,368.98534201275106,None,369.47658663635593,None,1,[0.008051886656176066],[0.5170096346191713],369.97616184850267,None,[1 1 0 1 2 0 0 0],space,0,1.8760039890657936,0.002305977468495257,None,369.9928201391449,None,1,371.86622501985767,None,None,372.3658009055063,None,,,,,,,,,,,,,,,,,,,,,,,,,,,,,,,,,,,,,,,,,,,,,,13_AT,13,32,F,2022-12-01_16h55.14.827,dynamic target,2022.1.3,120.11074900835351,
0,7,2,2,mix,0,68,68,68,,,,,,,None,373.39825601253324,None,372.40743457320787,None,372.8986817625373,None,1,[0.008649059163872153],[0.5178899990278296],373.39825601253324,None,[1 3 0 0 3 3 2 3],space,0,2.7897853642753034,0.002042028500000015,None,373.4149171896206,None,1,376.20420766080497,None,None,376.7037877157556,None,,,,,,,,,,,,,,,,,,,,,,,,,,,,,,,,,,,,,,,,,,,,,,13_AT,13,32,F,2022-12-01_16h55.14.827,dynamic target,2022.1.3,120.11074900835351,
1,8,3,1,mix,0,69,69,69,,,,,,,None,377.7362473128014,None,376.75380360721465,None,377.2366647241979,None,1,[0.008635909824079135],[0.5172928265201335],377.7362473128014,None,[3 2 3 2 0 2 2 3],space,0,1.8602716044515546,0.0026901947931037284,None,377.75289469911513,None,1,379.6179766884634,None,None,380.1175506498177,None,,,,,,,,,,,,,,,,,,,,,,,,,,,,,,,,,,,,,,,,,,,,,,13_AT,13,32,F,2022-12-01_16h55.14.827,dynamic target,2022.1.3,120.11074900835351,
1,7,3,2,mix,0,70,70,70,,,,,,,None,381.1500086432861,None,380.15920195687795,None,380.65042990326765,None,1,[0.008658680635562632],[0.5175510026056145],381.1500086432861,None,[2 3 3 0 1 3 3 1],space,0,2.014052825717954,0.0024268872584798373,None,381.1666618024792,None,1,383.1816170931161,None,None,383.681193299478,None,,,,,,,,,,,,,,,,,,,,,,,,,,,,,,,,,,,,,,,,,,,,,,13_AT,13,32,F,2022-12-01_16h55.14.827,dynamic target,2022.1.3,120.11074900835351,
0,2,3,0,mix,0,71,71,71,,,,,,,None,384.70532294941586,None,383.7144979822151,None,384.2057615280428,None,1,[0.008686582892551087],[0.5175529268963146],384.70532294941586,None,[3 1 0 0 1 1 1 2],space,0,2.810249587324506,0.0025231019462808035,None,384.7219767500392,None,1,387.5362509689621,None,None,388.0358290996184,None,,,,,,,,,,,,,,,,,,,,,,,,,,,,,,,,,,,,,,,,,,,,,,13_AT,13,32,F,2022-12-01_16h55.14.827,dynamic target,2022.1.3,120.11074900835351,
1,1,1,2,mix,0,72,72,72,,,,,,,None,389.06828773451707,None,388.0774762373767,None,388.5687218231251,None,1,[0.008627891933429055],[0.5179018655071559],389.06828773451707,None,[0 1 2 2 0 0 0 3],space,0,3.2792564304327243,0.0020458770886762068,None,389.0849389694158,None,1,392.36548528925414,None,None,392.8650605334689,None,,,,,,,,,,,,,,,,,,,,,,,,,,,,,,,,,,,,,,,,,,,,,,13_AT,13,32,F,2022-12-01_16h55.14.827,dynamic target,2022.1.3,120.11074900835351,
0,8,1,2,mix,0,73,73,73,,,,,,,None,393.89752718626187,None,392.90669516331764,393.905844304747,393.389624913445,None,1,[0.07480050685626338],[0.5753606367070461],393.89752718626187,None,[3 0 3 1 3 0 2 0],space,0,2.9120687826034555,0.002614185188576812,None,393.9641298808492,None,1,396.87831696133435,None,None,397.3779034305982,None,,,,,,,,,,,,,,,,,,,,,,,,,,,,,,,,,,,,,,,,,,,,,,13_AT,13,32,F,2022-12-01_16h55.14.827,dynamic target,2022.1.3,120.11074900835351,
0,7,4,2,mix,0,74,74,74,,,,,,,None,398.41035436832317,None,397.4279180391932,None,397.91077787331596,None,1,[0.008640720556286396],[0.5172007811343065],398.41035436832317,None,[2 3 2 0 2 2 0 1],space,0,2.705206879225443,0.0027639593863568734,None,398.42699149173495,None,1,401.1330415034863,None,None,401.6326177098519,None,,,,,,,,,,,,,,,,,,,,,,,,,,,,,,,,,,,,,,,,,,,,,,13_AT,13,32,F,2022-12-01_16h55.14.827,dynamic target,2022.1.3,120.11074900835351,
1,6,1,2,mix,0,75,75,75,,,,,,,None,402.65675088765784,None,401.66593329692114,None,402.1571711854958,None,1,[0.008698128658579662],[0.5174223956382775],402.65675088765784,None,[0 2 1 3 1 1 3 1],space,0,2.282584175831289,0.002682176902453648,None,402.67340148112635,None,1,404.9547986595353,None,None,405.4543825630746,None,,,,,,,,,,,,,,,,,,,,,,,,,,,,,,,,,,,,,,,,,,,,,,13_AT,13,32,F,2022-12-01_16h55.14.827,dynamic target,2022.1.3,120.11074900835351,
0,7,4,1,mix,0,76,76,76,,,,,,,None,406.4868293314976,None,405.49600885431573,406.49516473077165,405.98725860936975,None,2,"[0.008701335813384503, 0.8009693309286376]","[0.041850503541354556, 1.3080768704057846]",406.4868293314976,None,[0 1 1 2 0 2 0 1],space,0,4.33352087394087,0.0029243172066344414,None,407.2944759618804,None,1,411.632458923541,None,None,412.13203448847634,None,,,,,,,,,,,,,,,,,,,,,,,,,,,,,,,,,,,,,,,,,,,,,,13_AT,13,32,F,2022-12-01_16h55.14.827,dynamic target,2022.1.3,120.11074900835351,
1,6,2,2,mix,0,77,77,77,,,,,,,None,413.1645021034128,None,412.18205839782604,None,412.66493394700956,None,1,[0.00863719268454588],[0.5173900033587415],413.1645021034128,None,[2 0 1 3 1 0 3 0],space,0,4.830213493984047,0.002463128126692027,None,413.181146603285,None,1,418.01038284787137,None,None,418.5099523192068,None,,,,,,,,,,,,,,,,,,,,,,,,,,,,,,,,,,,,,,,,,,,,,,13_AT,13,32,F,2022-12-01_16h55.14.827,dynamic target,2022.1.3,120.11074900835351,
0,5,4,2,mix,0,78,78,78,,,,,,,None,419.53409062846185,None,418.5515863076216,None,419.03450803985834,None,1,[0.008611856152128894],[0.5178633796313079],419.53409062846185,None,[2 2 3 0 0 2 3 3],space,0,3.0203263441944728,0.002129583870555507,None,419.55073641119816,None,1,422.573169186795,None,None,423.07275533534556,None,,,,,,,,,,,,,,,,,,,,,,,,,,,,,,,,,,,,,,,,,,,,,,13_AT,13,32,F,2022-12-01_16h55.14.827,dynamic target,2022.1.3,120.11074900835351,
0,4,4,2,mix,0,79,79,79,,,,,,,None,424.1052011416177,None,423.1143806644395,None,423.6056256087577,None,1,[0.00860095181997167],[0.5176048828325293],424.1052011416177,None,[0 2 3 2 2 3 3 0],space,0,2.9128776274264965,0.002387439239100786,None,424.1218555836749,None,1,427.0360564549301,None,None,427.53562239839374,None,,,,,,,,,,,,,,,,,,,,,,,,,,,,,,,,,,,,,,,,,,,,,,13_AT,13,32,F,2022-12-01_16h55.14.827,dynamic target,2022.1.3,120.11074900835351,
1,3,2,2,mix,0,80,80,80,,,,,,,None,428.56807846756783,None,427.5772576696727,428.576405207521,428.06850421756826,None,1,[0.04979559189450811],[0.558637240796088],428.56807846756783,None,[2 0 3 3 0 1 0 0],space,0,6.407661027315044,0.002489426806278061,None,428.62637591014936,None,1,435.0375856270621,None,None,435.5371608712805,None,,,,,,,,,,,,,,,,,,,,,,,,,,,,,,,,,,,,,,,,,,,,,,13_AT,13,32,F,2022-12-01_16h55.14.827,dynamic target,2022.1.3,120.11074900835351,
1,3,2,0,mix,0,81,81,81,,,,,,,None,436.5612921247957,None,435.5871860634943,None,436.0617242891094,None,1,[0.008701656530320179],[0.5180760140938219],436.5612921247957,None,[1 2 3 2 1 3 2 1],space,0,4.056132961650292,0.002009956937399693,None,436.5779539433097,None,1,440.63283608512575,None,None,441.1324106879103,None,,,,,,,,,,,,,,,,,,,,,,,,,,,,,,,,,,,,,,,,,,,,,,13_AT,13,32,F,2022-12-01_16h55.14.827,dynamic target,2022.1.3,120.11074900835351,
0,8,4,0,mix,0,82,82,82,,,,,,,None,442.15655092146335,None,441.1740433934647,None,441.6569651257014,None,1,[0.008626929786260007],[0.5170664012839552],442.15655092146335,None,[3 2 2 1 2 0 2 2],space,0,2.3490980321912502,0.0029259207840368617,None,442.17319285560734,None,1,444.5212033122225,None,None,445.02078112216185,None,,,,,,,,,,,,,,,,,,,,,,,,,,,,,,,,,,,,,,,,,,,,,,13_AT,13,32,F,2022-12-01_16h55.14.827,dynamic target,2022.1.3,120.11074900835351,
1,7,1,2,mix,0,83,83,83,,,,,,,None,446.0532391156303,None,445.06240805483685,None,445.5536568477437,None,1,[0.008671188545122277],[0.5175805084436433],446.0532391156303,None,[1 2 2 2 1 2 1 0],space,0,2.852555507062789,0.00259269723756006,None,446.06988586051375,None,1,448.9257960242139,None,None,449.42538024847016,None,,,,,,,,,,,,,,,,,,,,,,,,,,,,,,,,,,,,,,,,,,,,,,13_AT,13,32,F,2022-12-01_16h55.14.827,dynamic target,2022.1.3,120.11074900835351,
1,6,4,2,mix,0,84,84,84,,,,,,,None,450.45782477188186,None,449.4837180691502,None,449.9582495597351,None,1,[0.009193634308758192],[0.517503857408883],450.45782477188186,None,[3 2 3 0 0 3 0 3],space,0,1.8075767432455905,0.0024163036432582885,None,450.47447793107494,None,1,452.28128268292494,None,None,452.7808543992716,None,,,,,,,,,,,,,,,,,,,,,,,,,,,,,,,,,,,,,,,,,,,,,,13_AT,13,32,F,2022-12-01_16h55.14.827,dynamic target,2022.1.3,120.11074900835351,
1,5,3,2,mix,0,85,85,85,,,,,,,None,453.8133194805552,None,452.8308715735948,None,453.3137323698611,None,1,[0.008677923571667634],[0.5087111176399048],453.8133194805552,None,[2 0 0 1 1 1 2 2],space,0,2.8929156450612936,0.0027713358504115604,None,453.82163528410456,None,1,456.7191762611401,None,None,457.2187518260718,None,,,,,,,,,,,,,,,,,,,,,,,,,,,,,,,,,,,,,,,,,,,,,,13_AT,13,32,F,2022-12-01_16h55.14.827,dynamic target,2022.1.3,120.11074900835351,
0,4,3,2,mix,0,86,86,86,,,,,,,None,458.25120661238543,None,457.26877060397237,None,457.75163204167256,None,1,[0.008628533363662427],[0.5175445882923668],458.25120661238543,None,[2 0 0 1 3 3 0 0],space,0,2.8932700358309376,0.0027251528008491732,None,458.267866827322,None,1,461.1654071629273,None,None,461.66497631354576,None,,,,,,,,,,,,,,,,,,,,,,,,,,,,,,,,,,,,,,,,,,,,,,13_AT,13,32,F,2022-12-01_16h55.14.827,dynamic target,2022.1.3,120.11074900835351,
1,3,4,2,mix,0,87,87,87,,,,,,,None,462.69743366558396,None,461.7149873942726,None,462.1978568498598,None,1,[0.0086403998429887],[0.5175093095749617],462.69743366558396,None,[3 2 1 1 0 3 0 1],space,0,3.1827181387525343,0.0023996264280867763,None,462.7140849004827,None,1,465.89471611374756,None,None,466.3942977722756,None,,,,,,,,,,,,,,,,,,,,,,,,,,,,,,,,,,,,,,,,,,,,,,13_AT,13,32,F,2022-12-01_16h55.14.827,dynamic target,2022.1.3,120.11074900835351,
1,2,2,2,mix,0,88,88,88,,,,,,,None,467.41843223294563,None,466.4359253463808,None,466.91884579575344,None,1,[0.008678885718836682],[0.5179653672021232],467.41843223294563,None,[0 0 0 2 3 2 3 2],space,0,4.733444287048769,0.0019903932843590155,None,467.43507416709326,None,1,472.1727198000517,None,None,472.67229408212296,None,,,,,,,,,,,,,,,,,,,,,,,,,,,,,,,,,,,,,,,,,,,,,,13_AT,13,32,F,2022-12-01_16h55.14.827,dynamic target,2022.1.3,120.11074900835351,
1,1,3,2,mix,0,89,89,89,,,,,,,None,473.7047507927273,None,472.7223317822427,None,473.20517365628984,None,1,[0.00867503713016049],[0.5175532476132503],473.7047507927273,None,[2 2 2 2 2 3 3 1],space,0,3.519626703044196,0.0025882072186504956,None,473.72139208544104,None,1,477.24341322252803,None,None,477.743008992543,None,,,,,,,,,,,,,,,,,,,,,,,,,,,,,,,,,,,,,,,,,,,,,,13_AT,13,32,F,2022-12-01_16h55.14.827,dynamic target,2022.1.3,120.11074900835351,
0,7,3,0,mix,0,90,90,90,,,,,,,None,478.7754528745245,None,477.792965872326,None,478.2758680409097,None,1,[0.008623722627817187],[0.5175195724732475],478.7754528745245,None,[1 2 2 2 2 3 1 1],space,0,2.880579318272794,0.0023367661669908557,None,478.79210827872885,None,1,481.67298455080527,None,None,482.17255915359345,None,,,,,,,,,,,,,,,,,,,,,,,,,,,,,,,,,,,,,,,,,,,,,,13_AT,13,32,F,2022-12-01_16h55.14.827,dynamic target,2022.1.3,120.11074900835351,
0,6,2,2,mix,0,91,91,91,,,,,,,None,483.2050158641978,None,482.21419506630264,483.21334228343767,482.7054425763454,None,1,[0.04144576041289838],[0.542018077456305],483.2050158641978,None,[0 1 0 3 2 2 1 0],space,0,4.569788552187674,0.0025487591992714442,None,483.24665020540124,None,1,487.8177671328667,None,None,488.31734141493797,None,,,,,,,,,,,,,,,,,,,,,,,,,,,,,,,,,,,,,,,,,,,,,,13_AT,13,32,F,2022-12-01_16h55.14.827,dynamic target,2022.1.3,120.11074900835351,
0,5,4,2,mix,0,92,92,92,,,,,,,None,489.34979748411206,None,488.3589792519415,489.3581248654991,488.8502283655653,None,1,[0.1330472763729631],[0.6332017009481206],489.34979748411206,None,[1 1 2 2 0 2 0 0],space,0,3.9011426424513047,0.0027203420613659546,None,489.4830201919358,None,1,493.38803384319544,None,None,493.88761229456867,None,,,,,,,,,,,,,,,,,,,,,,,,,,,,,,,,,,,,,,,,,,,,,,13_AT,13,32,F,2022-12-01_16h55.14.827,dynamic target,2022.1.3,120.11074900835351,
0,6,4,1,mix,0,93,93,93,,,,,,,None,494.92006964660686,None,493.9376281860277,None,494.4204937930299,None,1,[0.008535205113730626],[0.5172007811343065],494.92006964660686,None,[2 3 2 3 0 2 2 0],space,0,2.943061458419834,0.0024265665415441617,None,494.9367250508076,None,1,497.884223581128,None,None,498.38379048673886,None,,,,,,,,,,,,,,,,,,,,,,,,,,,,,,,,,,,,,,,,,,,,,,13_AT,13,32,F,2022-12-01_16h55.14.827,dynamic target,2022.1.3,120.11074900835351,
0,5,4,2,mix,0,94,94,94,,,,,,,None,499.41625232879596,None,498.4338060574846,None,498.91667294734725,None,1,[0.00866701923951041],[0.5174798037369328],499.41625232879596,None,[3 0 1 2 1 3 3 0],space,0,3.4542497836009716,0.0023678755860601086,None,499.4329022808306,None,1,502.88830051824334,None,None,503.387890194662,None,,,,,,,,,,,,,,,,,,,,,,,,,,,,,,,,,,,,,,,,,,,,,,13_AT,13,32,F,2022-12-01_16h55.14.827,dynamic target,2022.1.3,120.11074900835351,
1,4,1,2,mix,0,95,95,95,,,,,,,None,504.42034337739824,None,503.43788523960757,None,503.9207620716552,None,1,[0.008938986095017754],[0.517451260042435],504.42034337739824,None,[1 3 3 3 3 3 3 0],space,0,2.6589770037280687,0.002141771063179476,None,504.43698883941397,None,1,507.10140034066353,None,None,507.6009823199085,None,,,,,,,,,,,,,,,,,,,,,,,,,,,,,,,,,,,,,,,,,,,,,,13_AT,13,32,F,2022-12-01_16h55.14.827,dynamic target,2022.1.3,120.11074900835351,
0,3,3,2,mix,0,96,96,96,,,,,,,None,508.6334252718145,None,507.6426009139759,None,508.12552360835616,None,1,[0.008641361986519769],[0.5164653801875829],508.6334252718145,None,[1 1 2 3 3 3 3 1],space,0,2.726684242956253,0.0033476618373242673,None,508.64174716896014,None,1,511.37277868344245,None,None,511.87233789187593,None,,,,,,,,,,,,,,,,,,,,,,,,,,,,,,,,,,,,,,,,,,,,,,13_AT,13,32,F,2022-12-01_16h55.14.827,dynamic target,2022.1.3,120.11074900835351,
1,2,1,2,mix,0,97,97,97,,,,,,,None,512.8964662589497,None,511.9056486682093,None,512.3968955368255,None,1,[0.009303960487159202],[0.5177953879174311],512.8964662589497,None,[3 1 2 1 0 1 2 2],space,0,3.8456476130631927,0.0022703780268784612,None,512.9131383403655,None,1,516.7598529454663,None,None,517.2594275482545,None,,,,,,,,,,,,,,,,,,,,,,,,,,,,,,,,,,,,,,,,,,,,,,13_AT,13,32,F,2022-12-01_16h55.14.827,dynamic target,2022.1.3,120.11074900835351,
0,1,2,2,mix,0,98,98,98,,,,,,,None,518.2919018982175,None,517.3010615366693,None,517.7923100088592,None,1,[0.008699411519046407],[0.5169480572149041],518.2919018982175,None,[2 3 1 0 0 2 1 1],space,0,2.434929553211987,0.0030756949818169232,None,518.308538700916,None,1,520.7481189226382,None,None,521.2477172583815,None,,,,,,,,,,,,,,,,,,,,,,,,,,,,,,,,,,,,,,,,,,,,,,13_AT,13,32,F,2022-12-01_16h55.14.827,dynamic target,2022.1.3,120.11074900835351,
0,8,1,2,mix,0,99,99,99,,,,,,,None,522.2801637060875,None,521.2893429081887,None,521.7805888146577,None,1,[0.008689790050993906],[0.5177722963890119],522.2801637060875,None,[1 1 0 3 1 2 0 2],space,0,2.6376003447076073,0.002116434527124511,None,522.2968191102882,None,1,524.9362603338559,None,None,525.4358166558516,None,,,,,,,,,,,,,,,,,,,,,,,,,,,,,,,,,,,,,,,,,,,,,,13_AT,13,32,F,2022-12-01_16h55.14.827,dynamic target,2022.1.3,120.11074900835351,
1,7,1,2,mix,0,100,100,100,,,,,,,None,526.4599479414385,None,525.4691255078906,None,525.9603845636993,None,1,[0.008615704737167107],[0.5086190722504398],526.4599479414385,None,[3 0 0 1 3 1 3 0],space,0,2.2430739342598827,0.00286883340231725,None,526.4682740078897,None,1,528.7163773758184,None,None,529.2159593550671,None,,,,,,,,,,,,,,,,,,,,,,,,,,,,,,,,,,,,,,,,,,,,,,13_AT,13,32,F,2022-12-01_16h55.14.827,dynamic target,2022.1.3,120.11074900835351,
1,6,1,2,mix,0,101,101,101,,,,,,,None,530.2400816285408,None,529.2492463984418,None,529.740492625624,None,1,[0.008624684778624214],[0.5175827534549171],530.2400816285408,None,[2 0 2 1 0 0 0 0],space,0,2.0537686460120312,0.002506424738385249,None,530.2567245248356,None,1,532.3133099873739,None,None,532.8128865144529,None,,,,,,,,,,,,,,,,,,,,,,,,,,,,,,,,,,,,,,,,,,,,,,13_AT,13,32,F,2022-12-01_16h55.14.827,dynamic target,2022.1.3,120.11074900835351,
1,5,3,2,mix,0,102,102,102,,,,,,,None,533.8453461114987,None,532.8712246558462,533.8703337078223,533.3457927080162,None,1,[0.0497237515883171],[0.5502774671294901],533.8453461114987,None,[0 3 2 1 0 1 3 0],space,0,2.431067174853524,0.0025596635314286686,None,533.8953007783421,None,1,536.3265933874209,None,None,536.8261442572468,None,,,,,,,,,,,,,,,,,,,,,,,,,,,,,,,,,,,,,,,,,,,,,,13_AT,13,32,F,2022-12-01_16h55.14.827,dynamic target,2022.1.3,120.11074900835351,
1,4,3,2,mix,0,103,103,103,,,,,,,None,537.8586006471378,None,536.8677833771144,None,537.3590251142778,None,1,[0.008366187976207584],[0.5170166903626523],537.8586006471378,None,[0 1 0 2 2 3 0 1],space,0,2.850432369577902,0.002423359386739321,None,537.8752586170667,None,1,540.7311623664573,None,None,541.2307379313891,None,,,,,,,,,,,,,,,,,,,,,,,,,,,,,,,,,,,,,,,,,,,,,,13_AT,13,32,F,2022-12-01_16h55.14.827,dynamic target,2022.1.3,120.11074900835351,
1,3,4,2,mix,0,104,104,104,,,,,,,None,542.2632004148763,None,541.2723722405208,None,541.7636178262728,None,1,[0.008943796830862993],[0.5178242523252266],542.2632004148763,None,[1 3 1 2 2 2 3 3],space,0,2.141498162141943,0.0022492108000733424,None,542.2798580640883,None,1,544.4196952111051,None,None,544.9192569852669,None,,,,,,,,,,,,,,,,,,,,,,,,,,,,,,,,,,,,,,,,,,,,,,13_AT,13,32,F,2022-12-01_16h55.14.827,dynamic target,2022.1.3,120.11074900835351,
1,4,1,1,mix,0,105,105,105,,,,,,,None,545.9517287695053,None,544.9609102166214,545.9600526230206,545.4521647824076,None,1,[0.058142216214037035],[0.5588104272355849],545.9517287695053,None,[0 3 2 1 2 0 1 2],space,0,3.6279192226429586,0.0023181646611192264,None,546.0100149870414,None,1,549.6402731599155,None,None,550.1398400655264,None,,,,,,,,,,,,,,,,,,,,,,,,,,,,,,,,,,,,,,,,,,,,,,13_AT,13,32,F,2022-12-01_16h55.14.827,dynamic target,2022.1.3,120.11074900835351,
1,3,4,2,mix,0,106,106,106,,,,,,,None,551.1722929275456,None,550.1814737332279,551.1806199882158,550.6727238089989,None,1,[0.058133236179855885],[0.5584637336396554],551.1722929275456,None,[0 2 3 2 1 3 0 3],space,0,5.671425260272372,0.002748244321992388,None,551.2305765793535,None,1,556.9007632069879,None,None,557.4003634670255,None,,,,,,,,,,,,,,,,,,,,,,,,,,,,,,,,,,,,,,,,,,,,,,13_AT,13,32,F,2022-12-01_16h55.14.827,dynamic target,2022.1.3,120.11074900835351,
0,2,3,2,mix,0,107,107,107,,,,,,,None,558.4161407197535,None,557.4336521139812,None,557.9165664697575,None,1,[0.009260022441594629],[0.517566717669979],558.4161407197535,None,[1 3 0 3 1 3 3 3],space,0,1.9401464740403753,0.0019021964799321722,None,558.4327986896824,None,1,560.3728117171522,None,None,560.8723876028009,None,,,,,,,,,,,,,,,,,,,,,,,,,,,,,,,,,,,,,,,,,,,,,,13_AT,13,32,F,2022-12-01_16h55.14.827,dynamic target,2022.1.3,120.11074900835351,
1,1,1,2,mix,0,108,108,108,,,,,,,None,561.8965326470861,None,560.9224002871051,None,561.3969436441694,None,1,[0.008678885718836682],[0.5171308651260915],561.8965326470861,None,[0 3 2 2 2 3 0 2],space,0,2.6680163738201372,0.003073129257245455,None,561.9131707326451,None,1,564.5859032009648,None,None,565.0854883873683,None,,,,,,,,,,,,,,,,,,,,,,,,,,,,,,,,,,,,,,,,,,,,,,13_AT,13,32,F,2022-12-01_16h55.14.827,dynamic target,2022.1.3,120.11074900835351,
0,4,2,0,mix,0,109,109,109,,,,,,,None,566.1179357972178,None,565.1271133957453,None,565.6183769415729,None,1,[0.00866060492626275],[0.517515082454338],566.1179357972178,None,[2 2 3 1 3 2 3 1],space,0,2.3346664701784903,0.0025003311347973067,None,566.1345873528335,None,1,568.4659385566556,None,None,568.9655157251684,None,,,,,,,,,,,,,,,,,,,,,,,,,,,,,,,,,,,,,,,,,,,,,,13_AT,13,32,F,2022-12-01_16h55.14.827,dynamic target,2022.1.3,120.11074900835351,
1,3,2,2,mix,0,110,110,110,,,,,,,None,569.9979695493312,None,569.0155252023142,None,569.4983962614824,None,1,[0.009248476679204032],[0.5175830741682148],569.9979695493312,None,[2 1 0 2 0 0 1 1],space,0,2.5499946248128254,0.0023672341521887574,None,570.0146534972264,None,1,572.562459529694,None,None,573.0620344531956,None,,,,,,,,,,,,,,,,,,,,,,,,,,,,,,,,,,,,,,,,,,,,,,13_AT,13,32,F,2022-12-01_16h55.14.827,dynamic target,2022.1.3,120.11074900835351,
1,2,1,2,mix,0,111,111,111,,,,,,,None,574.094493729528,None,573.1036812702368,574.1028191866208,573.5949153102265,None,2,"[0.008689148620760534, 0.125570432843233]","[0.04218148207291961, 0.6333742459573841]",574.094493729528,None,[0 2 1 0 3 0 0 2],space,0,3.3295895417213615,0.0031590810503985267,None,574.2277100230349,None,1,577.5582154997355,None,None,578.0577939511088,None,,,,,,,,,,,,,,,,,,,,,,,,,,,,,,,,,,,,,,,,,,,,,,13_AT,13,32,F,2022-12-01_16h55.14.827,dynamic target,2022.1.3,120.11074900835351,
0,1,3,2,mix,0,112,112,112,,,,,,,None,579.0902493788526,None,578.1078040696884,None,578.5907030311137,None,1,[0.008678885718836682],[0.5172681314179499],579.0902493788526,None,[0 0 2 0 0 1 3 3],space,0,2.641767402918049,0.0026138644716411363,None,579.1069006137513,None,1,581.7463293294095,None,None,582.2459016871865,None,,,,,,,,,,,,,,,,,,,,,,,,,,,,,,,,,,,,,,,,,,,,,,13_AT,13,32,F,2022-12-01_16h55.14.827,dynamic target,2022.1.3,120.11074900835351,
1,8,1,2,mix,0,113,113,113,,,,,,,None,583.2783654535378,None,582.2875430520617,None,582.7787841477948,None,1,[0.008767403229285264],[0.5175195724696096],583.2783654535378,None,[3 3 2 3 3 0 1 0],space,0,2.692930526263808,0.002504500444047153,None,583.2950125191346,None,1,585.9927187930043,None,None,586.4922937165059,None,,,,,,,,,,,,,,,,,,,,,,,,,,,,,,,,,,,,,,,,,,,,,,13_AT,13,32,F,2022-12-01_16h55.14.827,dynamic target,2022.1.3,120.11074900835351,
1,7,3,2,mix,0,114,114,114,,,,,,,None,587.5247613314423,None,586.5423166637083,587.5414003791484,587.0251748942501,None,1,[0.11636845992688905],[0.616570991849585],587.5247613314423,None,[1 0 0 1 1 1 0 1],space,0,1.3866685856191907,0.002782240175292827,None,587.6413328043636,None,1,589.031804086364,None,None,589.5313793305825,None,,,,,,,,,,,,,,,,,,,,,,,,,,,,,,,,,,,,,,,,,,,,,,13_AT,13,32,F,2022-12-01_16h55.14.827,dynamic target,2022.1.3,120.11074900835351,
1,5,2,0,mix,0,115,115,115,,,,,,,None,590.5638508261793,None,589.5730104325594,None,590.0642621119041,None,1,[0.009056368016899796],[0.5091161814816587],590.5638508261793,None,[0 1 2 3 2 2 0 0],space,0,3.528007643941237,0.002494237542123301,None,590.5721634225738,None,1,594.1024978295573,None,None,594.6020740359193,None,,,,,,,,,,,,,,,,,,,,,,,,,,,,,,,,,,,,,,,,,,,,,,13_AT,13,32,F,2022-12-01_16h55.14.827,dynamic target,2022.1.3,120.11074900835351,
0,4,2,2,mix,0,116,116,116,,,,,,,None,595.6345291429461,None,594.6437057793264,595.6428639007936,595.1349657972787,None,1,[0.10812254031407065],[0.6083087157385307],595.6345291429461,None,[1 1 0 2 3 1 1 2],space,0,2.421119538095809,0.0028354789756122045,None,595.7427741966312,None,1,598.1657217849606,None,None,598.6652893320017,None,,,,,,,,,,,,,,,,,,,,,,,,,,,,,,,,,,,,,,,,,,,,,,13_AT,13,32,F,2022-12-01_16h55.14.827,dynamic target,2022.1.3,120.11074900835351,
0,3,1,2,mix,0,117,117,117,,,,,,,None,599.6977441183153,None,598.71530329917,None,599.1981698683157,None,1,[0.0078719651864958],[0.5164544758590637],599.6977441183153,None,[3 3 3 2 3 1 0 1],space,0,2.048760992132884,0.0022687744531140197,None,599.7144232554747,None,1,601.7626579243843,None,None,602.262233810033,None,,,,,,,,,,,,,,,,,,,,,,,,,,,,,,,,,,,,,,,,,,,,,,13_AT,13,32,F,2022-12-01_16h55.14.827,dynamic target,2022.1.3,120.11074900835351,
0,2,1,2,mix,0,118,118,118,,,,,,,None,603.2863647428312,None,602.3122349485748,None,602.7867834370882,None,1,[0.009186257848341484],[0.5172392670101544],603.2863647428312,None,[2 1 3 3 2 1 1 3],space,0,1.3877044971086434,0.0020631957340810914,None,603.3030227127601,None,1,604.6935036162286,None,None,605.1930778982962,None,,,,,,,,,,,,,,,,,,,,,,,,,,,,,,,,,,,,,,,,,,,,,,13_AT,13,32,F,2022-12-01_16h55.14.827,dynamic target,2022.1.3,120.11074900835351,
0,1,4,2,mix,0,119,119,119,,,,,,,None,606.2255330053267,None,605.2347199046053,None,605.7259565103159,None,1,[0.008845657845085952],[0.5174384314159397],606.2255330053267,None,[1 3 3 1 2 0 0 0],space,0,1.5369485543305927,0.002673838294867892,None,606.2421980309955,None,1,607.7825378035523,None,space,608.2904593193052,None,3.2858128200969077,,,,,,,,,,,,,,,,,,,,,,,,,,,,,,,,,,,,,,,,,,,,,13_AT,13,32,F,2022-12-01_16h55.14.827,dynamic target,2022.1.3,120.11074900835351,
1,4,2,0,mix,0,120,120,120,,,,,,,None,612.620107202405,None,611.6292645958456,None,612.1205278209563,None,1,[0.008641682703455444],[0.5175336839602096],612.620107202405,None,[0 0 3 3 1 3 3 2],space,0,3.382582668469695,0.0026334281283197924,None,612.6367587580207,None,1,616.0172230708704,None,None,616.5168185201721,None,,,,,,,,,,,,,,,,,,,,,,,,,,,,,,,,,,,,,,,,,,,,,,13_AT,13,32,F,2022-12-01_16h55.14.827,dynamic target,2022.1.3,120.11074900835351,
1,3,1,2,mix,0,121,121,121,,,,,,,None,617.5492470078025,None,616.5668170929857,617.5659027327201,617.0496737199501,None,1,[0.04985845215560403],[0.5503528353037836],617.5492470078025,None,[2 1 1 2 1 1 0 0],space,0,1.7476760432218725,0.002418869367829757,None,617.5992068060987,None,0,619.3560479110674,None,None,619.855626683154,None,,,,,,,,,,,,,,,,,,,,,,,,,,,,,,,,,,,,,,,,,,,,,,13_AT,13,32,F,2022-12-01_16h55.14.827,dynamic target,2022.1.3,120.11074900835351,
0,2,4,2,mix,0,122,122,122,,,,,,,None,620.8880878837808,None,619.8972718966179,None,620.3885081816152,None,1,[0.00863879626558628],[0.5177520913057378],620.8880878837808,None,[1 1 2 2 2 0 2 1],space,0,1.7692990118448506,0.00218891626354889,None,620.9047327043663,None,1,622.6782269685282,None,None,623.1778057406148,None,,,,,,,,,,,,,,,,,,,,,,,,,,,,,,,,,,,,,,,,,,,,,,13_AT,13,32,F,2022-12-01_16h55.14.827,dynamic target,2022.1.3,120.11074900835351,
1,7,1,0,mix,0,123,123,123,,,,,,,None,624.2102592440642,None,623.2278200284964,None,623.7106814661965,None,1,[0.008636871971248183],[0.5170926999671792],624.2102592440642,None,[3 1 2 2 0 1 3 2],space,0,2.6880203699365666,0.0028095010056858882,None,624.2269098375327,None,1,626.9162925786077,None,None,627.4158678228225,None,,,,,,,,,,,,,,,,,,,,,,,,,,,,,,,,,,,,,,,,,,,,,,13_AT,13,32,F,2022-12-01_16h55.14.827,dynamic target,2022.1.3,120.11074900835351,
1,6,3,2,mix,0,124,124,124,,,,,,,None,628.4483341869702,None,627.4574937933503,None,627.9487490005704,None,1,[0.008720578753127484],[0.5089596722573333],628.4483341869702,None,[2 2 3 3 0 0 2 3],space,0,1.6094415122170176,0.002592376524262363,None,628.4566499905231,None,1,630.0636210013581,None,None,630.5631936798484,None,,,,,,,,,,,,,,,,,,,,,,,,,,,,,,,,,,,,,,,,,,,,,,13_AT,13,32,F,2022-12-01_16h55.14.827,dynamic target,2022.1.3,120.11074900835351,
1,5,3,2,mix,0,125,125,125,,,,,,,None,631.595652314747,None,630.6132166270509,None,631.0960847997776,None,1,[0.008655794194055488],[0.517490708065452],631.595652314747,None,[2 2 0 2 1 1 1 3],space,0,2.5019815703999484,0.002427207971777534,None,631.6123224718685,None,1,634.1185095574838,None,None,634.6180838395551,None,,,,,,,,,,,,,,,,,,,,,,,,,,,,,,,,,,,,,,,,,,,,,,13_AT,13,32,F,2022-12-01_16h55.14.827,dynamic target,2022.1.3,120.11074900835351,
0,4,3,2,mix,0,126,126,126,,,,,,,None,635.642212848059,None,634.6513952573187,None,635.1426629724483,None,1,[0.009452772537770215],[0.5174727479898138],635.642212848059,None,[3 3 2 0 0 2 3 2],space,0,1.9269448564809863,0.0026327866944484413,None,635.6588682522633,None,1,637.5905664062557,None,None,638.0901368397383,None,,,,,,,,,,,,,,,,,,,,,,,,,,,,,,,,,,,,,,,,,,,,,,13_AT,13,32,F,2022-12-01_16h55.14.827,dynamic target,2022.1.3,120.11074900835351,
1,3,4,2,mix,0,127,127,127,,,,,,,None,639.1225903431878,None,638.1401524104804,639.139252803132,638.6230157724713,None,1,[0.12470866993680829],[0.6247492404654622],639.1225903431878,None,[0 0 3 0 2 0 2 3],space,0,2.4187103222684527,0.0030756949818169232,None,639.2474904803566,None,1,641.6704268436406,None,None,642.1700040121498,None,,,,,,,,,,,,,,,,,,,,,,,,,,,,,,,,,,,,,,,,,,,,,,13_AT,13,32,F,2022-12-01_16h55.14.827,dynamic target,2022.1.3,120.11074900835351,
0,2,4,2,mix,0,128,128,128,,,,,,,None,643.2024575155992,None,642.220026317922,None,642.7028839070335,None,1,[0.008658359918626957],[0.5175904506286315],643.2024575155992,None,[3 1 2 1 2 0 2 3],space,0,1.5025707250169944,0.0023579333974339534,None,643.2191276727244,None,0,644.7344929982937,None,None,645.2340769018331,None,,,,,,,,,,,,,,,,,,,,,,,,,,,,,,,,,,,,,,,,,,,,,,13_AT,13,32,F,2022-12-01_16h55.14.827,dynamic target,2022.1.3,120.11074900835351,
1,1,4,2,mix,0,129,129,129,,,,,,,None,646.2665204630975,None,645.2757012687835,None,645.7669430059432,None,1,[0.008676961424498586],[0.5176286157875438],646.2665204630975,None,[1 2 3 2 0 3 2 3],space,0,4.118423313851963,0.002281923792907037,None,646.2831675286943,None,1,650.4046738530487,None,None,650.9042593601655,None,,,,,,,,,,,,,,,,,,,,,,,,,,,,,,,,,,,,,,,,,,,,,,13_AT,13,32,F,2022-12-01_16h55.14.827,dynamic target,2022.1.3,120.11074900835351,
0,8,1,2,mix,0,130,130,130,,,,,,,None,651.9283832372203,None,650.9458821235348,None,651.4287984036055,None,1,[0.008596461801062105],[0.5171244508164818],651.9283832372203,None,[0 0 1 1 3 0 0 1],space,0,3.7201499826696818,0.002806614571454702,None,651.9450450557342,None,1,655.6668707487115,None,None,656.1664466343602,None,,,,,,,,,,,,,,,,,,,,,,,,,,,,,,,,,,,,,,,,,,,,,,13_AT,13,32,F,2022-12-01_16h55.14.827,dynamic target,2022.1.3,120.11074900835351,
1,7,2,2,mix,0,131,131,131,,,,,,,None,657.1989033449681,None,656.2080857542278,None,656.6993416028781,None,1,[0.008827056339214323],[0.5175577376321598],657.1989033449681,None,[0 3 0 0 1 1 1 0],space,0,2.881757627503248,0.002574095738964388,None,657.2155571455914,None,1,660.0964411148452,None,None,660.596026621962,None,,,,,,,,,,,,,,,,,,,,,,,,,,,,,,,,,,,,,,,,,,,,,,13_AT,13,32,F,2022-12-01_16h55.14.827,dynamic target,2022.1.3,120.11074900835351,
1,6,1,2,mix,0,132,132,132,,,,,,,None,661.6284779124719,None,660.6376519510559,None,661.1205740040095,None,1,[0.008574973853683332],[0.5164131035417086],661.6284779124719,None,[2 2 3 3 1 0 2 1],space,0,3.5331179268214328,0.0031661367902415805,None,661.636800451055,None,1,665.1671338958877,None,None,665.6667165165666,None,,,,,,,,,,,,,,,,,,,,,,,,,,,,,,,,,,,,,,,,,,,,,,13_AT,13,32,F,2022-12-01_16h55.14.827,dynamic target,2022.1.3,120.11074900835351,
0,5,1,2,mix,0,133,133,133,,,,,,,None,666.6908407143346,None,665.7000186335754,None,666.1912648607577,None,1,[0.008962719053670298],[0.517470502982178],666.6908407143346,None,[1 0 2 0 0 3 1 1],space,0,1.5334691104362719,0.0024945582590589765,None,666.7074941942446,None,0,668.2478516061601,None,None,668.7474249260806,None,,,,,,,,,,,,,,,,,,,,,,,,,,,,,,,,,,,,,,,,,,,,,,13_AT,13,32,F,2022-12-01_16h55.14.827,dynamic target,2022.1.3,120.11074900835351,
1,4,3,2,mix,0,134,134,134,,,,,,,None,669.7798931824509,None,668.7974433832678,None,669.2803250260476,None,1,[0.008652266322314972],[0.5179663293492922],669.7798931824509,None,[3 3 1 0 2 0 0 1],space,0,3.77145390017904,0.002008994790230645,None,669.7965376823231,None,1,673.576680060818,None,None,674.076232534225,None,,,,,,,,,,,,,,,,,,,,,,,,,,,,,,,,,,,,,,,,,,,,,,13_AT,13,32,F,2022-12-01_16h55.14.827,dynamic target,2022.1.3,120.11074900835351,
1,3,1,2,mix,0,135,135,135,,,,,,,None,675.1086892448329,None,674.1178703712321,675.117015022639,674.6091117876786,None,2,"[0.025206965816323645, 0.8673609946308716]","[0.03356096659990726, 1.3745974617922911]",675.1086892448329,None,[0 0 2 1 0 2 1 1],space,0,3.233351119157305,0.0027601108013186604,None,675.9829507569993,None,1,679.2135356749641,None,None,679.713110598462,None,,,,,,,,,,,,,,,,,,,,,,,,,,,,,,,,,,,,,,,,,,,,,,13_AT,13,32,F,2022-12-01_16h55.14.827,dynamic target,2022.1.3,120.11074900835351,
0,2,1,2,mix,0,136,136,136,,,,,,,None,680.7455673090699,None,679.7547497183295,None,680.2460026805384,None,1,[0.008661887790367473],[0.5174788415897638],680.7455673090699,None,[3 0 3 1 2 3 1 0],space,0,3.749222533995635,0.0024910303873184603,None,680.7622220718404,None,1,684.5090366440054,None,None,685.0086134918013,None,,,,,,,,,,,,,,,,,,,,,,,,,,,,,,,,,,,,,,,,,,,,,,13_AT,13,32,F,2022-12-01_16h55.14.827,dynamic target,2022.1.3,120.11074900835351,
0,1,2,2,mix,0,137,137,137,,,,,,,None,686.0410685988281,None,685.0586335525622,686.057721116591,685.5414937073983,None,1,[0.058139009059232194],[0.558196898229653],686.0410685988281,None,[0 2 1 2 3 1 1 2],space,0,2.6368258164584404,0.0027985966771666426,None,686.0993625135379,None,0,688.7471064233869,None,None,689.246689685496,None,,,,,,,,,,,,,,,,,,,,,,,,,,,,,,,,,,,,,,,,,,,,,,13_AT,13,32,F,2022-12-01_16h55.14.827,dynamic target,2022.1.3,120.11074900835351,
0,8,1,2,mix,0,138,138,138,,,,,,,None,690.2708087518149,None,689.288316297454,None,689.7712338603851,None,1,[0.008684979315148667],[0.5177360555244377],690.2708087518149,None,[3 1 0 0 2 2 3 3],space,0,2.1759548875015753,0.002189236973208608,None,690.2874625524382,None,1,692.4689452657076,None,None,692.9685195477753,None,,,,,,,,,,,,,,,,,,,,,,,,,,,,,,,,,,,,,,,,,,,,,,13_AT,13,32,F,2022-12-01_16h55.14.827,dynamic target,2022.1.3,120.11074900835351,
1,7,4,2,mix,0,139,139,139,,,,,,,None,694.0009778619606,None,693.0101577054957,None,693.5013965562175,None,1,[0.008727955209906213],[0.5176222014742962],694.0009778619606,None,[2 3 3 3 0 3 2 2],space,0,2.334212336845667,0.002439395168039482,None,694.0176319833008,None,1,696.3489966571797,None,None,696.8485549034697,None,,,,,,,,,,,,,,,,,,,,,,,,,,,,,,,,,,,,,,,,,,,,,,13_AT,13,32,F,2022-12-01_16h55.14.827,dynamic target,2022.1.3,120.11074900835351,
0,6,1,2,mix,0,140,140,140,,,,,,,None,697.8810096897796,None,696.8901975512053,None,697.3814325533422,None,1,[0.00839473166706739],[0.5172225897986209],697.8810096897796,None,[0 0 1 1 1 0 2 1],space,0,2.645643251329602,0.0023556883897981606,None,697.8976727911577,None,1,700.5454122109913,None,None,701.0449961145271,None,,,,,,,,,,,,,,,,,,,,,,,,,,,,,,,,,,,,,,,,,,,,,,13_AT,13,32,F,2022-12-01_16h55.14.827,dynamic target,2022.1.3,120.11074900835351,
0,5,1,2,mix,0,141,141,141,,,,,,,None,702.0774448072443,None,701.0866265750738,None,701.5778699158145,None,1,[0.007594546164909843],[0.5164615316025447],702.0774448072443,None,[3 0 2 3 2 2 3 1],space,0,3.4732730313153297,0.0025231019499187823,None,702.0940995700148,None,1,705.5661647573907,None,None,706.0657374358846,None,,,,,,,,,,,,,,,,,,,,,,,,,,,,,,,,,,,,,,,,,,,,,,13_AT,13,32,F,2022-12-01_16h55.14.827,dynamic target,2022.1.3,120.11074900835351,
1,8,1,0,mix,0,142,142,142,,,,,,,None,707.098181317866,None,706.1157472337472,None,706.5986041814249,None,1,[0.008460157656372758],[0.5172960336749384],707.098181317866,None,[3 1 2 3 1 1 1 2],space,0,2.4195335992953915,0.002595904399640858,None,707.1148457021045,None,1,709.5377753303583,None,None,710.0373441602635,None,,,,,,,,,,,,,,,,,,,,,,,,,,,,,,,,,,,,,,,,,,,,,,13_AT,13,32,F,2022-12-01_16h55.14.827,dynamic target,2022.1.3,120.11074900835351,
1,7,3,2,mix,0,143,143,143,,,,,,,None,711.069805392962,None,710.0789832801311,None,710.5702339973323,None,1,[0.008623081197583815],[0.5086514645299758],711.069805392962,None,[2 0 2 0 0 1 3 0],space,0,2.4102273938005965,0.003016362592461519,None,711.0781410808813,None,1,713.4927513456423,None,None,713.992321458408,None,,,,,,,,,,,,,,,,,,,,,,,,,,,,,,,,,,,,,,,,,,,,,,13_AT,13,32,F,2022-12-01_16h55.14.827,dynamic target,2022.1.3,120.11074900835351,
0,6,2,2,mix,0,144,144,144,,,,,,,None,715.0247541153403,None,714.0339560882567,None,714.5252087297486,None,1,[0.00935655784996925],[0.5177171333016304],715.0247541153403,None,[0 1 2 1 1 2 1 0],space,0,3.5643642887043825,0.002142091776477173,None,715.0414425532545,None,1,718.6050749400165,None,None,719.1046479392237,None,,,,,,,,,,,,,,,,,,,,,,,,,,,,,,,,,,,,,,,,,,,,,,13_AT,13,32,F,2022-12-01_16h55.14.827,dynamic target,2022.1.3,120.11074900835351,
0,5,1,2,mix,0,145,145,145,,,,,,,None,720.1371024048203,None,719.1462803240611,720.1454342762263,719.6375409834473,None,1,[0.08309132666545338],[0.5832300361762464],720.1371024048203,None,[3 2 0 2 0 0 3 1],space,0,2.8347663731001376,0.002964406659884844,None,720.2203682007857,None,1,723.0596219981417,None,None,723.5591988459339,None,,,,,,,,,,,,,,,,,,,,,,,,,,,,,,,,,,,,,,,,,,,,,,13_AT,13,32,F,2022-12-01_16h55.14.827,dynamic target,2022.1.3,120.11074900835351,
1,4,3,2,mix,0,146,146,146,,,,,,,None,724.5916539529644,None,723.6092070402192,None,724.09207649581,None,1,[0.008421671780524775],[0.5171106600391795],724.5916539529644,None,[1 2 2 2 1 1 0 0],space,0,1.9818981971657195,0.0023495947898481973,None,724.6083080743047,None,1,726.5899548015441,None,None,727.0895310079097,None,,,,,,,,,,,,,,,,,,,,,,,,,,,,,,,,,,,,,,,,,,,,,,13_AT,13,32,F,2022-12-01_16h55.14.827,dynamic target,2022.1.3,120.11074900835351,
1,3,3,2,mix,0,147,147,147,,,,,,,None,728.113667392874,None,727.1395452957913,None,727.6140848042669,None,1,[0.008730520934477681],[0.5175154031712736],728.113667392874,None,[0 0 0 1 1 0 0 3],space,0,2.5074609969742596,0.0026183544941886794,None,728.1303141377539,None,1,730.6365265599052,None,None,731.1360957105237,None,,,,,,,,,,,,,,,,,,,,,,,,,,,,,,,,,,,,,,,,,,,,,,13_AT,13,32,F,2022-12-01_16h55.14.827,dynamic target,2022.1.3,120.11074900835351,
1,2,3,2,mix,0,148,148,148,,,,,,,None,732.1685617218827,None,731.1860583631897,None,731.6689756054075,None,1,[0.008736935247725341],[0.517205271153216],732.1685617218827,None,[0 0 0 0 3 0 3 1],space,0,2.6931771565832605,0.0029374665464274585,None,732.1851869788152,None,0,734.8912385941476,None,None,735.3908135176491,None,,,,,,,,,,,,,,,,,,,,,,,,,,,,,,,,,,,,,,,,,,,,,,13_AT,13,32,F,2022-12-01_16h55.14.827,dynamic target,2022.1.3,120.11074900835351,
0,3,4,1,mix,0,149,149,149,,,,,,,None,736.4232779575025,None,735.4324494303582,None,735.9236934125329,None,1,[0.008638475548650604],[0.5091116914627491],736.4232779575025,None,[3 1 3 1 3 2 2 2],space,0,3.215094061088166,0.002558380667323945,None,736.431596006063,None,1,739.6455470077708,None,None,740.1451062162043,None,,,,,,,,,,,,,,,,,,,,,,,,,,,,,,,,,,,,,,,,,,,,,,13_AT,13,32,F,2022-12-01_16h55.14.827,dynamic target,2022.1.3,120.11074900835351,
0,1,3,0,mix,0,150,150,150,,,,,,,None,741.1775754347218,None,740.1951282012633,None,740.6779886768127,None,1,[0.0087337280929205],[0.5174881423408806],741.1775754347218,None,[0 2 3 0 3 0 1 1],space,0,3.6187303990664077,0.002458317390846787,None,741.1942334046471,None,1,744.8161385388885,None,None,745.3157182731259,None,,,,,,,,,,,,,,,,,,,,,,,,,,,,,,,,,,,,,,,,,,,,,,13_AT,13,32,F,2022-12-01_16h55.14.827,dynamic target,2022.1.3,120.11074900835351,
1,8,1,2,mix,0,151,151,151,,,,,,,None,746.3481714558584,None,745.357354185835,None,745.8485956022814,None,1,[0.008867787226336077],[0.5175304768054048],746.3481714558584,None,[3 3 1 2 0 1 2 3],space,0,4.703995215568284,0.002228684999863617,None,746.36484161298,None,1,751.0691741925257,None,None,751.568736928831,None,,,,,,,,,,,,,,,,,,,,,,,,,,,,,,,,,,,,,,,,,,,,,,13_AT,13,32,F,2022-12-01_16h55.14.827,dynamic target,2022.1.3,120.11074900835351,
0,7,2,2,mix,0,152,152,152,,,,,,,None,752.5928643337575,None,751.6020624580851,None,752.0932900837615,None,1,[0.00864841773363878],[0.5175833948815125],752.5928643337575,None,[3 2 0 1 0 0 2 3],space,0,5.723245529949054,0.0023595369784743525,None,752.6095261522751,None,0,758.3380009217362,None,None,758.8375614130339,None,,,,,,,,,,,,,,,,,,,,,,,,,,,,,,,,,,,,,,,,,,,,,,13_AT,13,32,F,2022-12-01_16h55.14.827,dynamic target,2022.1.3,120.11074900835351,
1,6,1,2,mix,0,153,153,153,,,,,,,None,759.8700165200607,None,758.8875949438516,759.886674810703,759.370441307914,None,1,[0.13345907524126233],[0.6424636476840533],759.8700165200607,None,[1 3 1 0 2 0 3 0],space,0,5.953303191414307,0.0024689010097063147,None,760.0115640435433,None,1,765.9731714959489,None,None,766.47275892736,None,,,,,,,,,,,,,,,,,,,,,,,,,,,,,,,,,,,,,,,,,,,,,,13_AT,13,32,F,2022-12-01_16h55.14.827,dynamic target,2022.1.3,120.11074900835351,
1,2,3,0,mix,0,154,154,154,,,,,,,None,767.5051973571753,None,766.5143794457181,767.5135221728342,767.0056211828814,None,1,[0.09136546925583389],[0.600192685953516],767.5051973571753,None,[2 3 0 1 1 1 2 3],space,0,2.759059203148354,0.0023258618348336313,None,767.6051147087564,None,1,770.3694297708134,None,None,770.8690075807529,None,,,,,,,,,,,,,,,,,,,,,,,,,,,,,,,,,,,,,,,,,,,,,,13_AT,13,32,F,2022-12-01_16h55.14.827,dynamic target,2022.1.3,120.11074900835351,
0,1,1,2,mix,0,155,155,155,,,,,,,None,771.9014614049192,None,770.9106476627676,771.9097939177555,771.4019015871236,None,1,[0.1164091908140108],[0.6167820227346965],771.9014614049192,None,[0 3 3 2 3 0 1 0],space,0,2.3781462091283174,0.002432018707622774,None,772.0180338399878,None,1,774.3993413142343,None,None,774.8989223313322,None,,,,,,,,,,,,,,,,,,,,,,,,,,,,,,,,,,,,,,,,,,,,,,13_AT,13,32,F,2022-12-01_16h55.14.827,dynamic target,2022.1.3,120.11074900835351,
1,8,2,2,mix,0,156,156,156,,,,,,,None,775.9313742312042,None,774.9405553575998,None,775.4317983776273,None,1,[0.008691714345332002],[0.5173736468605057],775.9313742312042,None,[3 1 3 0 2 1 2 1],space,0,3.3762539869021566,0.002595262969407486,None,775.9480238625256,None,1,779.328485930364,None,None,779.8280624574429,None,,,,,,,,,,,,,,,,,,,,,,,,,,,,,,,,,,,,,,,,,,,,,,13_AT,13,32,F,2022-12-01_16h55.14.827,dynamic target,2022.1.3,120.11074900835351,
1,4,3,0,mix,0,157,157,157,,,,,,,None,780.8605057300658,None,779.8864092581607,None,780.3526162538037,None,1,[0.008647134869534057],[0.5164782088140782],780.8605057300658,None,[2 1 0 2 2 0 2 0],space,0,3.3517644619569182,0.002946446584246587,None,780.8688452665738,None,1,784.2243450746246,None,None,784.7239058866392,None,,,,,,,,,,,,,,,,,,,,,,,,,,,,,,,,,,,,,,,,,,,,,,13_AT,13,32,F,2022-12-01_16h55.14.827,dynamic target,2022.1.3,120.11074900835351,
0,3,3,2,mix,0,158,158,158,,,,,,,None,785.7563593900886,None,784.7739095909019,785.7730157564365,785.2567822536475,None,1,[0.14143399014574243],[0.6501255441326066],785.7563593900886,None,[2 1 3 2 1 0 3 1],space,0,2.9215452880962403,0.002747282178461319,None,785.9062323706603,None,1,788.828748115393,None,None,789.328335867521,None,,,,,,,,,,,,,,,,,,,,,,,,,,,,,,,,,,,,,,,,,,,,,,13_AT,13,32,F,2022-12-01_16h55.14.827,dynamic target,2022.1.3,120.11074900835351,
0,2,1,2,mix,0,159,159,159,,,,,,,None,790.360778819427,None,789.3699496508525,None,789.8612125552463,None,1,[0.008616346171038458],[0.5086546716884186],790.360778819427,None,[0 3 0 0 0 0 3 2],space,0,3.066669753021415,0.0027722979975806084,None,790.3691263738256,None,1,793.4331713612482,None,None,793.9327636033915,None,,,,,,,,,,,,,,,,,,,,,,,,,,,,,,,,,,,,,,,,,,,,,,13_AT,13,32,F,2022-12-01_16h55.14.827,dynamic target,2022.1.3,120.11074900835351,
0,3,1,1,mix,0,160,160,160,,,,,,,None,794.9568743311065,None,793.9827345946651,None,794.4573119475863,None,1,[0.008674074986629421],[0.5176796095765894],794.9568743311065,None,[3 1 2 2 3 1 3 2],space,0,3.8213745711691445,0.002445809484925121,None,794.9735383946318,None,1,798.7952814391901,None,None,799.2948598905634,None,,,,,,,,,,,,,,,,,,,,,,,,,,,,,,,,,,,,,,,,,,,,,,13_AT,13,32,F,2022-12-01_16h55.14.827,dynamic target,2022.1.3,120.11074900835351,
1,2,4,2,mix,0,161,161,161,,,,,,,None,800.3273230154809,None,799.3364909925403,800.3356391718225,799.8277654426965,None,1,[0.07537202211460681],[0.5836081599045428],800.3273230154809,None,[1 0 2 3 1 0 0 2],space,0,2.7046677562502737,0.0023653098542126827,None,800.4105795106952,None,1,803.1166077137859,None,None,803.6161845615818,None,,,,,,,,,,,,,,,,,,,,,,,,,,,,,,,,,,,,,,,,,,,,,,13_AT,13,32,F,2022-12-01_16h55.14.827,dynamic target,2022.1.3,120.11074900835351,
1,1,3,2,mix,0,162,162,162,,,,,,,None,804.6486406307558,None,803.6662078295012,None,804.1490638150317,None,1,[0.009527178564894712],[0.517458315789554],804.6486406307558,None,[0 1 1 1 1 3 2 1],space,0,2.913208926674997,0.002656840366398683,None,804.6653043735641,None,1,807.5794885676078,None,None,808.0790711882867,None,,,,,,,,,,,,,,,,,,,,,,,,,,,,,,,,,,,,,,,,,,,,,,13_AT,13,32,F,2022-12-01_16h55.14.827,dynamic target,2022.1.3,120.11074900835351,
1,8,3,2,mix,0,163,163,163,,,,,,,None,809.1032072846058,None,808.1123822853333,None,808.6036137595984,None,1,[0.008604800408647861],[0.5090295882619102],809.1032072846058,None,[2 3 1 3 3 1 2 1],space,0,1.3469133173020964,0.0023585748276673257,None,809.1115176359926,None,1,810.4603741404426,None,None,810.9599458567857,None,,,,,,,,,,,,,,,,,,,,,,,,,,,,,,,,,,,,,,,,,,,,,,13_AT,13,32,F,2022-12-01_16h55.14.827,dynamic target,2022.1.3,120.11074900835351,
1,1,3,1,mix,0,164,164,164,,,,,,,None,811.9924105852806,None,811.0015808073476,None,811.4928501260547,None,1,[0.008682092873641523],[0.5176244464855699],811.9924105852806,None,[1 0 3 2 0 0 2 0],space,0,2.929279666281218,0.002404437163932016,None,812.0090566887302,None,1,814.9399078327406,None,None,815.4394757004986,None,,,,,,,,,,,,,,,,,,,,,,,,,,,,,,,,,,,,,,,,,,,,,,13_AT,13,32,F,2022-12-01_16h55.14.827,dynamic target,2022.1.3,120.11074900835351,
0,8,3,2,mix,0,165,165,165,,,,,,,None,816.4719311282424,None,815.489483574067,None,815.9723568782429,None,1,[0.008673112839460373],[0.5173656289698556],816.4719311282424,None,[0 3 2 0 0 1 2 1],space,0,1.4736889994892408,0.002550042063376168,None,816.4885846081488,None,1,817.9623303454391,None,None,818.4619094382426,None,,,,,,,,,,,,,,,,,,,,,,,,,,,,,,,,,,,,,,,,,,,,,,13_AT,13,32,F,2022-12-01_16h55.14.827,dynamic target,2022.1.3,120.11074900835351,
1,7,2,2,mix,0,166,166,166,,,,,,,None,819.4943645452695,None,818.5118717701916,819.5110177044626,818.9947954267227,None,3,"[0.009139754078205442, 0.3082654511963483, 1.0250491737242555]","[0.1669860459805932, 0.6174141532428621, 1.533027776858944]",819.4943645452695,None,[2 0 3 2 3 3 0 3],space,0,5.211768560700875,0.0026815354685822967,None,820.5268171186435,None,1,825.7390571024553,None,None,826.2386406852777,None,,,,,,,,,,,,,,,,,,,,,,,,,,,,,,,,,,,,,,,,,,,,,,13_AT,13,32,F,2022-12-01_16h55.14.827,dynamic target,2022.1.3,120.11074900835351,
1,6,3,2,mix,0,167,167,167,,,,,,,None,827.2711041309121,None,826.2886229015967,None,826.7715138451313,None,1,[0.00939119513714104],[0.5173883997813391],827.2711041309121,None,[3 3 2 3 2 3 1 0],space,0,2.1459676551930897,0.0024361880095966626,None,827.2877438200485,None,1,829.4359157249091,None,None,829.935492893422,None,,,,,,,,,,,,,,,,,,,,,,,,,,,,,,,,,,,,,,,,,,,,,,13_AT,13,32,F,2022-12-01_16h55.14.827,dynamic target,2022.1.3,120.11074900835351,
0,5,2,2,mix,0,168,168,168,,,,,,,None,830.9679499247432,None,829.985498842696,None,830.4683747125964,None,1,[0.008885426588676637],[0.517307579440967],830.9679499247432,None,[1 1 1 1 1 0 1 3],space,0,2.2415444414073136,0.002499689708201913,None,830.9846069325249,None,1,833.2243659211417,None,None,833.7239552768435,None,,,,,,,,,,,,,,,,,,,,,,,,,,,,,,,,,,,,,,,,,,,,,,13_AT,13,32,F,2022-12-01_16h55.14.827,dynamic target,2022.1.3,120.11074900835351,
0,4,2,2,mix,0,169,169,169,,,,,,,None,834.7480695324302,None,833.7572689396184,834.7563953102399,834.2484984895891,None,1,[0.04146917265097727],[0.5503816997079412],834.7480695324302,None,[0 1 2 1 0 2 1 1],space,0,2.170924142097647,0.002404437167569995,None,834.7980424800662,None,1,836.9711885111938,None,None,837.470757020382,None,,,,,,,,,,,,,,,,,,,,,,,,,,,,,,,,,,,,,,,,,,,,,,13_AT,13,32,F,2022-12-01_16h55.14.827,dynamic target,2022.1.3,120.11074900835351,
0,3,3,2,mix,0,170,170,170,,,,,,,None,838.5032130895597,None,837.5123948573892,None,838.003637877413,None,1,[0.009318392691056943],[0.5174679372576065],838.5032130895597,None,[1 2 2 3 0 0 0 1],space,0,1.953376635290624,0.002448054492560914,None,838.5198813223869,None,1,840.476538529012,None,None,840.9761240361288,None,,,,,,,,,,,,,,,,,,,,,,,,,,,,,,,,,,,,,,,,,,,,,,13_AT,13,32,F,2022-12-01_16h55.14.827,dynamic target,2022.1.3,120.11074900835351,
1,4,4,1,mix,0,171,171,171,,,,,,,None,842.0085679181102,None,841.0177548173888,None,841.5089923852465,None,1,[0.00864841773363878],[0.5176093728478008],842.0085679181102,None,[2 0 1 0 0 0 3 1],space,0,4.2395948110824975,0.0024490166433679406,None,842.0252252466053,None,1,846.2632947052734,None,None,846.7628625730315,None,,,,,,,,,,,,,,,,,,,,,,,,,,,,,,,,,,,,,,,,,,,,,,13_AT,13,32,F,2022-12-01_16h55.14.827,dynamic target,2022.1.3,120.11074900835351,
0,3,3,2,mix,0,172,172,172,,,,,,,None,847.7953176800584,None,846.8044638484535,None,847.2957678044477,None,1,[0.00863558910714346],[0.5173569696489722],847.7953176800584,None,[0 2 3 0 1 2 2 1],space,0,2.8852290535032807,0.0024278494056488853,None,847.8119708392514,None,1,850.7011834727527,None,None,851.2007587169712,None,,,,,,,,,,,,,,,,,,,,,,,,,,,,,,,,,,,,,,,,,,,,,,13_AT,13,32,F,2022-12-01_16h55.14.827,dynamic target,2022.1.3,120.11074900835351,
0,2,4,2,mix,0,173,173,173,,,,,,,None,852.2248896497695,None,851.2507714012718,None,851.7253288698266,None,1,[0.008652907752548344],[0.5176808924370562],852.2248896497695,None,[0 3 0 1 0 2 2 0],space,0,2.871378307507257,0.0022540215359185822,None,852.2415396018041,None,1,855.1141333926862,None,None,855.6136762446251,None,,,,,,,,,,,,,,,,,,,,,,,,,,,,,,,,,,,,,,,,,,,,,,13_AT,13,32,F,2022-12-01_16h55.14.827,dynamic target,2022.1.3,120.11074900835351,
0,1,4,2,mix,0,174,174,174,,,,,,,None,856.6461297480746,None,855.6636937396615,None,856.1465417073014,None,1,[0.009360727151943138],[0.5174839730389067],856.6461297480746,None,[2 3 3 1 1 3 0 3],space,0,3.1218626682857575,0.0025542113689880352,None,856.6627857937092,None,1,859.785130789438,None,None,860.2847381052154,None,,,,,,,,,,,,,,,,,,,,,,,,,,,,,,,,,,,,,,,,,,,,,,13_AT,13,32,F,2022-12-01_16h55.14.827,dynamic target,2022.1.3,120.11074900835351,
1,8,3,2,mix,0,175,175,175,,,,,,,None,861.317163064974,None,860.334728660142,None,860.8175862492535,None,1,[0.008340530726854922],[0.5168515218138054],861.317163064974,None,[0 3 2 3 3 3 2 1],space,0,2.0023082192710717,0.002668065411853604,None,861.3338226384803,None,1,863.3404444541375,None,None,863.8400248298015,None,,,,,,,,,,,,,,,,,,,,,,,,,,,,,,,,,,,,,,,,,,,,,,13_AT,13,32,F,2022-12-01_16h55.14.827,dynamic target,2022.1.3,120.11074900835351,
1,7,2,2,mix,0,176,176,176,,,,,,,None,864.8641499897203,None,863.8733256639534,864.8724918033076,864.3645757397207,None,1,[0.07470108501365758],[0.5836270821273501],864.8641499897203,None,[1 2 1 1 3 2 2 1],space,0,1.6049553419579752,0.0026873083515965845,None,864.9474135406781,None,1,866.554383268649,None,None,867.053974869362,None,,,,,,,,,,,,,,,,,,,,,,,,,,,,,,,,,,,,,,,,,,,,,,13_AT,13,32,F,2022-12-01_16h55.14.827,dynamic target,2022.1.3,120.11074900835351,
1,8,3,1,mix,0,177,177,177,,,,,,,None,868.0780900870959,None,867.0872670441895,None,867.5785087813529,None,1,[0.009331221313914284],[0.5177674856568046],868.0780900870959,None,[2 0 3 1 3 0 0 2],space,0,2.0571303872638964,0.002329710423509823,None,868.0947480570248,None,1,870.1513232566613,None,None,870.6509010666043,None,,,,,,,,,,,,,,,,,,,,,,,,,,,,,,,,,,,,,,,,,,,,,,13_AT,13,32,F,2022-12-01_16h55.14.827,dynamic target,2022.1.3,120.11074900835351,
0,7,4,2,mix,0,178,178,178,,,,,,,None,871.6833718886955,None,870.6925472422117,None,871.1837803200542,None,1,[0.008708070843567839],[0.5176581216255727],871.6833718886955,None,[3 1 2 0 1 3 2 0],space,0,1.4601243318320485,0.0023463876314053778,None,871.7000112571186,None,0,873.1737560322581,None,None,873.6733312764766,None,,,,,,,,,,,,,,,,,,,,,,,,,,,,,,,,,,,,,,,,,,,,,,13_AT,13,32,F,2022-12-01_16h55.14.827,dynamic target,2022.1.3,120.11074900835351,
0,4,3,0,mix,0,179,179,179,,,,,,,None,874.7058043435791,None,873.7233436400638,None,874.2062124542208,None,1,[0.008725068772037048],[0.5174612022310612],874.7058043435791,None,[0 2 1 1 1 0 1 2],space,0,3.8288972770315013,0.0025324027046735864,None,874.7224533334702,None,1,878.5608453679197,None,space,879.0687498857442,None,3.232383520095027,,,,,,,,,,,,,,,,,,,,,,,,,,,,,,,,,,,,,,,,,,,,,13_AT,13,32,F,2022-12-01_16h55.14.827,dynamic target,2022.1.3,120.11074900835351,
1,3,2,2,mix,0,180,180,180,,,,,,,None,883.3484357255402,None,882.3576287184151,883.3567698419538,882.8488691727143,None,1,[0.07479088539184886],[0.5751393429236487],883.3484357255402,None,[0 3 3 2 0 2 2 3],space,0,3.3523706144987955,0.002650105339853326,None,883.4233834408733,None,1,886.7788710617315,None,None,887.2784479095274,None,,,,,,,,,,,,,,,,,,,,,,,,,,,,,,,,,,,,,,,,,,,,,,13_AT,13,32,F,2022-12-01_16h55.14.827,dynamic target,2022.1.3,120.11074900835351,
0,2,3,2,mix,0,181,181,181,,,,,,,None,888.3025759558841,None,887.3200786907873,None,887.8029959330051,None,1,[0.008591330351919169],[0.5168075837718789],888.3025759558841,None,[3 1 3 3 1 1 1 0],space,0,2.9204080304662057,0.0031581189032294787,None,888.3192217386168,None,0,891.2417378040664,None,None,891.7413143311453,None,,,,,,,,,,,,,,,,,,,,,,,,,,,,,,,,,,,,,,,,,,,,,,13_AT,13,32,F,2022-12-01_16h55.14.827,dynamic target,2022.1.3,120.11074900835351,
0,1,2,2,mix,0,182,182,182,,,,,,,None,892.7737652688702,None,891.7829322837788,892.7820987438536,892.2741958296065,None,2,"[0.04981066552863922, 0.2412567306200799]","[0.09977912314570858, 0.741838669135177]",892.7737652688702,None,[3 1 3 2 2 2 3 3],space,0,2.543664018947311,0.0024727495947445277,None,893.0152397654019,None,1,895.5630695308282,None,None,896.0626739601678,None,,,,,,,,,,,,,,,,,,,,,,,,,,,,,,,,,,,,,,,,,,,,,,13_AT,13,32,F,2022-12-01_16h55.14.827,dynamic target,2022.1.3,120.11074900835351,
1,8,1,2,mix,0,183,183,183,,,,,,,None,897.0867818335093,None,896.0959491370668,None,896.5872097964493,None,1,[0.008661567077069776],[0.5088063701841747],897.0867818335093,None,[1 0 0 1 1 2 0 3],space,0,2.4484140419626783,0.0027912202167499345,None,897.0951021270812,None,1,899.5430238416775,None,None,900.0426019723375,None,,,,,,,,,,,,,,,,,,,,,,,,,,,,,,,,,,,,,,,,,,,,,,13_AT,13,32,F,2022-12-01_16h55.14.827,dynamic target,2022.1.3,120.11074900835351,
1,7,4,2,mix,0,184,184,184,,,,,,,None,901.075050985768,None,900.092595092985,901.091702862097,900.5754757736213,None,1,[0.19173150200367672],[0.6921873992760084],901.075050985768,None,[3 1 1 2 3 2 1 1],space,0,3.2840626748948125,0.002438433024508413,None,901.2665611939847,None,1,904.5554268773158,None,None,905.0550021215342,None,,,,,,,,,,,,,,,,,,,,,,,,,,,,,,,,,,,,,,,,,,,,,,13_AT,13,32,F,2022-12-01_16h55.14.827,dynamic target,2022.1.3,120.11074900835351,
1,6,3,2,mix,0,185,185,185,,,,,,,None,906.0791330543325,None,905.0883196328941,906.0874569078442,905.5795626529216,None,1,[0.08308972308441298],[0.5833493423888285],906.0791330543325,None,[0 2 1 1 1 0 2 2],space,0,3.4281512283268967,0.002871078409953043,None,906.1624148860792,None,1,909.5928146228362,None,None,910.0923892256208,None,,,,,,,,,,,,,,,,,,,,,,,,,,,,,,,,,,,,,,,,,,,,,,13_AT,13,32,F,2022-12-01_16h55.14.827,dynamic target,2022.1.3,120.11074900835351,
0,1,3,0,mix,0,186,186,186,,,,,,,None,911.1248468983722,None,910.1424134556873,911.1415199419353,910.6252687997876,None,1,[0.11554742791122408],[0.6155902434475138],911.1248468983722,None,[2 1 2 1 2 2 2 3],space,0,1.9330618657295418,0.0029753109920420684,None,911.2414129191311,None,1,913.1731043380933,None,None,913.6726811858891,None,,,,,,,,,,,,,,,,,,,,,,,,,,,,,,,,,,,,,,,,,,,,,,13_AT,13,32,F,2022-12-01_16h55.14.827,dynamic target,2022.1.3,120.11074900835351,
1,8,3,2,mix,0,187,187,187,,,,,,,None,914.7051372550632,None,913.7226393485362,914.7217888106788,914.2055684572333,None,1,[0.049679813550028484],[0.5587305690423818],914.7051372550632,None,[3 1 1 1 1 2 2 0],space,0,1.7389471258647973,0.0026173923470196314,None,914.7634083989651,None,1,916.5036091733637,None,None,917.0031844175821,None,,,,,,,,,,,,,,,,,,,,,,,,,,,,,,,,,,,,,,,,,,,,,,13_AT,13,32,F,2022-12-01_16h55.14.827,dynamic target,2022.1.3,120.11074900835351,
1,7,3,2,mix,0,188,188,188,,,,,,,None,918.0356411281864,None,917.0448225752989,None,917.5360646331792,None,1,[0.00868722432278446],[0.517534325390443],918.0356411281864,None,[1 2 0 3 3 3 2 2],space,0,1.3458171112761192,0.0025532492181810085,None,918.052291400938,None,1,919.4011472639577,None,None,919.9007234703197,None,,,,,,,,,,,,,,,,,,,,,,,,,,,,,,,,,,,,,,,,,,,,,,13_AT,13,32,F,2022-12-01_16h55.14.827,dynamic target,2022.1.3,120.11074900835351,
0,6,2,2,mix,0,189,189,189,,,,,,,None,920.933177615203,None,919.9590596874223,None,920.4336049687809,None,1,[0.008634947676910087],[0.5172697349989903],920.933177615203,None,[0 1 0 3 3 0 3 2],space,0,2.8644851664248563,0.002806614567816723,None,920.9498416787283,None,1,923.8140647916116,None,None,924.3136400358301,None,,,,,,,,,,,,,,,,,,,,,,,,,,,,,,,,,,,,,,,,,,,,,,13_AT,13,32,F,2022-12-01_16h55.14.827,dynamic target,2022.1.3,120.11074900835351,
0,5,2,2,mix,0,190,190,190,,,,,,,None,925.346096425721,None,924.3552717792372,None,924.846518968563,None,1,[0.009438981767743826],[0.5172565856555593],925.346096425721,None,[0 3 3 2 3 2 3 1],space,0,2.2902861617330927,0.0022254778414207976,None,925.3627550370766,None,1,927.6524844076048,None,None,928.1520465024835,None,,,,,,,,,,,,,,,,,,,,,,,,,,,,,,,,,,,,,,,,,,,,,,13_AT,13,32,F,2022-12-01_16h55.14.827,dynamic target,2022.1.3,120.11074900835351,
0,4,4,2,mix,0,191,191,191,,,,,,,None,929.1845012887934,None,928.2020800333012,929.2011817088169,928.6766108824559,None,2,"[0.008786004742432851, 0.1917148247921432]","[0.033535630063852295, 0.6918817572804983]",929.1845012887934,None,[1 1 3 1 3 0 0 0],space,0,3.0705366213987872,0.002986215320561314,None,929.3676789841775,None,1,932.4400741237951,None,None,932.9396451987079,None,,,,,,,,,,,,,,,,,,,,,,,,,,,,,,,,,,,,,,,,,,,,,,13_AT,13,32,F,2022-12-01_16h55.14.827,dynamic target,2022.1.3,120.11074900835351,
1,2,2,0,mix,0,192,192,192,,,,,,,None,933.972112492931,None,932.9812788664094,933.9804231971029,933.4725395257956,None,1,[0.11707916576779098],[0.6251020276613417],933.972112492931,None,[1 1 0 1 1 1 2 1],space,0,2.6926264878457005,0.0026225237925245892,None,934.0969975564658,None,1,936.7863931261636,None,None,937.2859513724536,None,,,,,,,,,,,,,,,,,,,,,,,,,,,,,,,,,,,,,,,,,,,,,,13_AT,13,32,F,2022-12-01_16h55.14.827,dynamic target,2022.1.3,120.11074900835351,
0,1,1,2,mix,0,193,193,193,,,,,,,None,938.3184084037748,None,937.327587926593,938.3267354644449,937.8105064516749,None,1,[0.1338522726073279],[0.6417292088881368],938.3184084037748,None,[1 1 0 0 0 0 2 2],space,0,3.6171906433191907,0.002676404023077339,None,938.4516285458703,None,1,942.0735542059119,None,None,942.5731249601115,None,,,,,,,,,,,,,,,,,,,,,,,,,,,,,,,,,,,,,,,,,,,,,,13_AT,13,32,F,2022-12-01_16h55.14.827,dynamic target,2022.1.3,120.11074900835351,
0,8,3,2,mix,0,194,194,194,,,,,,,None,943.6055816707158,None,942.6314621393576,943.6305657391677,943.106006779286,None,1,[0.1581278802259476],[0.6585529887961457],943.6055816707158,None,[2 2 2 0 1 2 0 1],space,0,3.169224349247088,0.0024159829299605917,None,943.7637826741047,None,1,946.9360842609749,None,None,947.4356623916312,None,,,,,,,,,,,,,,,,,,,,,,,,,,,,,,,,,,,,,,,,,,,,,,13_AT,13,32,F,2022-12-01_16h55.14.827,dynamic target,2022.1.3,120.11074900835351,
0,7,4,2,mix,0,195,195,195,,,,,,,None,948.4597907587049,None,947.4689770165533,None,947.9602168294223,None,1,[0.008631740522105247],[0.5171311858430272],948.4597907587049,None,[2 0 3 0 0 0 1 3],space,0,2.5683183917280985,0.002957030199468136,None,948.4764442386149,None,1,951.0492683353914,None,None,951.5488426174627,None,,,,,,,,,,,,,,,,,,,,,,,,,,,,,,,,,,,,,,,,,,,,,,13_AT,13,32,F,2022-12-01_16h55.14.827,dynamic target,2022.1.3,120.11074900835351,
1,6,2,2,mix,0,196,196,196,,,,,,,None,952.5812974037726,None,951.5988341345328,None,952.0817148151691,None,1,[0.00869524221343454],[0.5170346504382906],952.5812974037726,None,[1 0 0 3 2 2 2 0],space,0,2.3352030274327262,0.0028300268058956135,None,952.5979406207807,None,1,954.9376099052388,None,None,955.4371960537858,None,,,,,,,,,,,,,,,,,,,,,,,,,,,,,,,,,,,,,,,,,,,,,,13_AT,13,32,F,2022-12-01_16h55.14.827,dynamic target,2022.1.3,120.11074900835351,
0,5,1,2,mix,0,197,197,197,,,,,,,None,956.4696604615674,None,955.487212907392,956.4863059235831,955.9700865322848,None,2,"[0.008674716413224814, 1.108486552551767]","[0.3582047236923245, 1.6159407856321195]",956.4696604615674,None,[1 3 0 2 0 2 2 1],space,0,3.1555371682188706,0.0031555531750200316,None,957.5853695301521,None,1,960.7410288621613,None,None,961.2405976920666,None,,,,,,,,,,,,,,,,,,,,,,,,,,,,,,,,,,,,,,,,,,,,,,13_AT,13,32,F,2022-12-01_16h55.14.827,dynamic target,2022.1.3,120.11074900835351,
0,4,4,2,mix,0,198,198,198,,,,,,,None,962.2730537612406,None,961.2906062070651,None,961.773475341939,None,1,[0.008633664812805364],[0.5172864122105238],962.2730537612406,None,[3 3 1 2 1 1 1 2],space,0,2.194920085683407,0.002888076338422252,None,962.2897136554602,None,1,964.4878392650207,None,None,964.987437600764,None,,,,,,,,,,,,,,,,,,,,,,,,,,,,,,,,,,,,,,,,,,,,,,13_AT,13,32,F,2022-12-01_16h55.14.827,dynamic target,2022.1.3,120.11074900835351,
1,3,1,2,mix,0,199,199,199,,,,,,,None,966.0198734648548,None,965.0374227035209,966.036521813312,965.5202966491306,None,2,"[0.008672792118886719, 1.0919844504205685]","[0.4498081639430893, 1.5994505499766092]",966.0198734648548,None,[2 0 3 0 2 0 0 1],space,0,2.7736774216537015,0.002914375021646265,None,967.1189460514615,None,1,969.8915804770113,None,None,970.3911589283846,None,,,,,,,,,,,,,,,,,,,,,,,,,,,,,,,,,,,,,,,,,,,,,,13_AT,13,32,F,2022-12-01_16h55.14.827,dynamic target,2022.1.3,120.11074900835351,
0,2,1,2,mix,0,200,200,200,,,,,,,None,971.4152856918809,None,970.4328403827167,971.4319401339344,970.9157287605267,None,2,"[0.049859414302773075, 0.06653374072629958]","[0.05816851489726105, 0.5668863675637112]",971.4152856918809,None,[2 3 3 3 1 2 1 1],space,0,2.1061912196455523,0.0025590221011952963,None,971.4819169301591,None,1,973.5884413444765,None,None,974.0880156265478,None,,,,,,,,,,,,,,,,,,,,,,,,,,,,,,,,,,,,,,,,,,,,,,13_AT,13,32,F,2022-12-01_16h55.14.827,dynamic target,2022.1.3,120.11074900835351,
0,1,4,2,mix,0,201,201,201,,,,,,,None,975.1204816379068,None,974.129656991423,975.1288077364297,974.6125828929617,None,1,[0.08358394587412477],[0.5838435651785403],975.1204816379068,None,[2 3 0 0 1 0 2 1],space,0,6.183640516908781,0.0022832066570117604,None,975.1954078652925,None,0,981.3901435106236,None,None,981.8897193962723,None,,,,,,,,,,,,,,,,,,,,,,,,,,,,,,,,,,,,,,,,,,,,,,13_AT,13,32,F,2022-12-01_16h55.14.827,dynamic target,2022.1.3,120.11074900835351,
1,8,2,2,mix,0,202,202,202,,,,,,,None,982.9221751447294,None,981.9313565918419,982.9305038089769,982.422602177594,None,1,[0.024794525510515086],[0.5250804434981546],982.9221751447294,None,[1 3 1 2 1 1 0 0],space,0,2.959816925900668,0.002295714566571405,None,982.9471675517889,None,1,985.9196350769234,None,None,986.4192042275456,None,,,,,,,,,,,,,,,,,,,,,,,,,,,,,,,,,,,,,,,,,,,,,,13_AT,13,32,F,2022-12-01_16h55.14.827,dynamic target,2022.1.3,120.11074900835351,
0,7,4,2,mix,0,203,203,203,,,,,,,None,987.4516583724253,None,986.4608414231152,None,986.9520850845729,None,1,[0.009302036192821106],[0.5174666543935018],987.4516583724253,None,[2 2 1 2 1 2 0 1],space,0,5.367209485360945,0.002688591215701308,None,987.4683182666449,None,1,992.8387515566719,None,None,993.3383322530565,None,,,,,,,,,,,,,,,,,,,,,,,,,,,,,,,,,,,,,,,,,,,,,,13_AT,13,32,F,2022-12-01_16h55.14.827,dynamic target,2022.1.3,120.11074900835351,
0,6,2,2,mix,0,204,204,204,,,,,,,None,994.3624529229528,None,993.3800316674606,None,993.8628805972476,None,1,[0.008683696454681922],[0.5173200873505266],994.3624529229528,None,[0 3 1 0 2 3 2 0],space,0,2.984000167420163,0.002744075023656478,None,994.3791157036139,None,1,997.3682360672283,None,None,997.8678151600354,None,,,,,,,,,,,,,,,,,,,,,,,,,,,,,,,,,,,,,,,,,,,,,,13_AT,13,32,F,2022-12-01_16h55.14.827,dynamic target,2022.1.3,120.11074900835351,
1,5,2,2,mix,0,205,205,205,,,,,,,None,998.9002670599039,None,997.92615554644,None,998.4006921684777,None,1,[0.007985819240275305],[0.516744723507145],998.9002670599039,None,[2 2 3 1 3 2 3 0],space,0,3.597937121779978,0.0026315038339816965,None,998.9169205398139,None,1,1002.513863734981,None,None,1003.013441544924,None,,,,,,,,,,,,,,,,,,,,,,,,,,,,,,,,,,,,,,,,,,,,,,13_AT,13,32,F,2022-12-01_16h55.14.827,dynamic target,2022.1.3,120.11074900835351,
0,4,4,2,mix,0,206,206,206,,,,,,,None,1004.037576005594,None,1003.0550752126255,None,1003.5380017555945,None,1,[0.008703901537955971],[0.5169223999655514],1004.037576005594,None,[2 0 1 2 0 3 3 3],space,0,2.092475815639773,0.0031629296354367398,None,1004.0542217883267,None,1,1006.1441097206662,None,None,1006.6436727776884,None,,,,,,,,,,,,,,,,,,,,,,,,,,,,,,,,,,,,,,,,,,,,,,13_AT,13,32,F,2022-12-01_16h55.14.827,dynamic target,2022.1.3,120.11074900835351,
1,3,4,2,mix,0,207,207,207,,,,,,,None,1007.667815576966,None,1006.685335630511,None,1007.1682432512607,None,1,[0.008603517544543138],[0.5169897502491949],1007.667815576966,None,[1 3 2 0 0 2 0 0],space,0,3.326758584840718,0.003230600636015879,None,1007.6844751504723,None,1,1011.0149729299956,None,None,1011.514558116399,None,,,,,,,,,,,,,,,,,,,,,,,,,,,,,,,,,,,,,,,,,,,,,,13_AT,13,32,F,2022-12-01_16h55.14.827,dynamic target,2022.1.3,120.11074900835351,
0,2,4,2,mix,0,208,208,208,,,,,,,None,1012.5386787862953,None,1011.5645563684957,None,1012.0391006877107,None,1,[0.009050915854459163],[0.5175134788769356],1012.5386787862953,None,[3 3 1 0 2 2 3 2],space,0,3.1906606613774784,0.002565115697507281,None,1012.555334511213,None,1,1015.7442898987065,None,None,1016.2438782922648,None,,,,,,,,,,,,,,,,,,,,,,,,,,,,,,,,,,,,,,,,,,,,,,13_AT,13,32,F,2022-12-01_16h55.14.827,dynamic target,2022.1.3,120.11074900835351,
0,1,2,2,mix,0,209,209,209,,,,,,,None,1017.2763199292349,None,1016.2855109978191,None,1016.7767569042844,None,1,[0.008570483834773768],[0.5168021316021623],1017.2763199292349,None,[3 2 3 1 1 0 3 2],space,0,3.2371644280210603,0.003259144323237706,None,1017.2929904070734,None,1,1020.5318863499233,None,None,1021.0314734606211,None,,,,,,,,,,,,,,,,,,,,,,,,,,,,,,,,,,,,,,,,,,,,,,13_AT,13,32,F,2022-12-01_16h55.14.827,dynamic target,2022.1.3,120.11074900835351,
0,8,3,2,mix,0,210,210,210,,,,,,,None,1022.0639167011686,None,1021.0731048833113,1022.0722427996916,1021.5643539969351,None,2,"[0.008595499657531036, 0.2583659474439628]","[0.10041638510665507, 0.758993427574751]",1022.0639167011686,None,[0 2 1 2 2 1 0 2],space,0,2.207293294770352,0.0025853207807813305,None,1022.3220321697008,None,1,1024.528492216392,None,None,1025.0280645741652,None,,,,,,,,,,,,,,,,,,,,,,,,,,,,,,,,,,,,,,,,,,,,,,13_AT,13,32,F,2022-12-01_16h55.14.827,dynamic target,2022.1.3,120.11074900835351,
1,7,2,2,mix,0,211,211,211,,,,,,,None,1026.0605248126449,None,1025.0697081840517,None,1025.560945751913,None,1,[0.00859678251799778],[0.5176382372555963],1026.0605248126449,None,[2 0 3 1 0 0 1 2],space,0,1.7318160137838277,0.002396098559984239,None,1026.0771645017812,None,0,1027.817367841908,None,None,1028.3169401996813,None,,,,,,,,,,,,,,,,,,,,,,,,,,,,,,,,,,,,,,,,,,,,,,13_AT,13,32,F,2022-12-01_16h55.14.827,dynamic target,2022.1.3,120.11074900835351,
1,6,1,2,mix,0,212,212,212,,,,,,,None,1029.3493978724364,None,1028.3752783410782,None,1028.8498354889161,None,1,[0.009526857847959036],[0.5175952613608388],1029.3493978724364,None,[1 3 0 0 1 1 0 3],space,0,3.1149332863424206,0.002570567863585893,None,1029.366048465905,None,1,1032.4883979516526,None,None,1032.9879738373013,None,,,,,,,,,,,,,,,,,,,,,,,,,,,,,,,,,,,,,,,,,,,,,,13_AT,13,32,F,2022-12-01_16h55.14.827,dynamic target,2022.1.3,120.11074900835351,
0,5,2,2,mix,0,213,213,213,,,,,,,None,1034.0204266993169,None,1033.0379900494772,None,1033.5208498835964,None,1,[0.008687865753017832],[0.517399624826794],1034.0204266993169,None,[1 1 0 3 2 2 1 3],space,0,4.059926065430773,0.002545231327530928,None,1034.0370808206571,None,1,1038.1002909852905,None,None,1038.5998681538033,None,,,,,,,,,,,,,,,,,,,,,,,,,,,,,,,,,,,,,,,,,,,,,,13_AT,13,32,F,2022-12-01_16h55.14.827,dynamic target,2022.1.3,120.11074900835351,
0,4,4,2,mix,0,214,214,214,,,,,,,None,1039.6240170466772,None,1038.6331843823027,None,1039.1244222708774,None,1,[0.016574583863985026],[0.517283205055719],1039.6240170466772,None,[1 0 0 0 2 0 3 2],space,0,2.168439558095997,0.0022876966759213246,None,1039.6406512836475,None,1,1041.8138037290882,None,None,1042.3133882740578,None,,,,,,,,,,,,,,,,,,,,,,,,,,,,,,,,,,,,,,,,,,,,,,13_AT,13,32,F,2022-12-01_16h55.14.827,dynamic target,2022.1.3,120.11074900835351,
