tar_letter,tar_pos,tar_ori,tar_pos_type,block,trials.thisRepN,trials.thisTrialN,trials.thisN,trials.thisIndex,instructions_key.keys,instructions_key.rt,instructions_key.started,instructions_key.stopped,instruction_text.started,instruction_text.stopped,fix_key.keys,fix_key.started,fix_key.stopped,fixcross.started,fixcross.stopped,roi.started,roi.stopped,roi.numLooks,roi.timesOn,roi.timesOff,RedFixCross.started,RedFixCross.stopped,distori,search_resp.keys,search_resp.corr,search_resp.rt,search_resp.started,search_resp.stopped,fixcross_shape.started,fixcross_shape.stopped,correct,feedback_text.started,feedback_text.stopped,break_key.keys,break_key.started,break_key.stopped,break_key.rt,text_q1.started,text_q1.stopped,key_resp1.keys,key_resp1.rt,key_resp1.started,key_resp1.stopped,text_q2.started,text_q2.stopped,key_resp_2.keys,key_resp_2.rt,key_resp_2.started,key_resp_2.stopped,image.started,image.stopped,text_q1_2.started,text_q1_2.stopped,slider.response,slider.rt,slider.started,slider.stopped,mouse.x,mouse.y,mouse.leftButton,mouse.midButton,mouse.rightButton,mouse.time,mouse.started,mouse.stopped,key_resp_3.keys,key_resp_3.rt,key_resp_3.started,key_resp_3.stopped,text_q4.started,text_q4.stopped,key_resp1_3.keys,key_resp1_3.rt,key_resp1_3.started,key_resp1_3.stopped,finish_text.started,finish_text.stopped,key_resp.keys,key_resp.rt,key_resp.started,key_resp.stopped,participant,group,age,gender,date,expName,psychopyVersion,frameRate,
,,,,,,,,,space,2.725264483493447,63.43946360779955,None,,,,,,,,,,,,,,,,,,,,,,,,,,,,,,,,,,,,,,,,,,,,,,,,,,,,,,,,,,,,,,,,,,,,,,,,,,14_CS,14,30,F,2022-12-06_13h43.56.132,dynamic target,2022.1.3,120.1052745113644,
1,1,4,0,mix,0,0,0,0,,,,,63.43946360779955,None,None,141.59836460160295,None,140.62491577178662,141.63167070609234,141.09879548443678,None,3,"[0.008070834765021573, 0.1502413232519757, 0.8336051407040941]","[0.0659476840573916, 0.5827944491647941, 1.3406793484446098]",141.59836460160295,None,[1 3 3 3 2 2 1 1],space,0,2.753388448181795,0.007153200254833791,None,142.44765631489463,None,1,145.20365123089323,None,None,145.70322079706312,None,,,,,,,,,,,,,,,,,,,,,,,,,,,,,,,,,,,,,,,,,,,,,,14_CS,14,30,F,2022-12-06_13h43.56.132,dynamic target,2022.1.3,120.1052745113644,
1,2,2,1,mix,0,1,1,1,,,,,,,None,146.73569002349905,None,145.76156255722708,None,146.23611866131432,None,1,[0.008650369771203259],[0.5170738325032289],146.73569002349905,None,[1 0 3 0 1 1 3 0],space,0,2.924514519654622,0.0027198055686312728,None,146.75235061258354,None,1,149.67487797532704,None,None,150.17444465504815,None,,,,,,,,,,,,,,,,,,,,,,,,,,,,,,,,,,,,,,,,,,,,,,14_CS,14,30,F,2022-12-06_13h43.56.132,dynamic target,2022.1.3,120.1052745113644,
1,1,3,2,mix,0,2,2,2,,,,,,,None,151.2069093914488,None,150.23278898094395,151.23190797227835,150.7073332185155,None,1,[0.4741301923622814],[0.9829035569709959],151.2069093914488,None,[1 1 0 0 3 1 0 0],space,0,2.9143750624298264,0.0025793316708586644,None,151.68984614259534,None,1,154.60403968291394,None,None,155.10361438054935,None,,,,,,,,,,,,,,,,,,,,,,,,,,,,,,,,,,,,,,,,,,,,,,14_CS,14,30,F,2022-12-06_13h43.56.132,dynamic target,2022.1.3,120.1052745113644,
0,4,1,0,mix,0,3,3,3,,,,,,,None,156.13607943766692,None,155.1535912087711,None,155.63650422688443,None,1,[0.0086555012367171],[0.5175565110785101],156.13607943766692,None,[2 2 0 2 0 2 1 0],space,0,1.570126458267623,0.0019292389988549985,None,156.15273810245344,None,1,157.7264116905062,None,None,158.22597580449366,None,,,,,,,,,,,,,,,,,,,,,,,,,,,,,,,,,,,,,,,,,,,,,,14_CS,14,30,F,2022-12-06_13h43.56.132,dynamic target,2022.1.3,120.1052745113644,
0,3,2,2,mix,0,4,4,4,,,,,,,None,159.25011345351777,None,158.27594140763176,159.275105940731,158.7505356770016,None,2,"[0.008827405366901075, 0.8169323643851385]","[0.3666189119558112, 1.3248680170763691]",159.25011345351777,None,[2 0 1 0 1 3 1 0],space,0,2.097380158296801,0.0027201262855669484,None,160.074422301097,None,1,162.1726449855778,None,None,162.67221583461543,None,,,,,,,,,,,,,,,,,,,,,,,,,,,,,,,,,,,,,,,,,,,,,,14_CS,14,30,F,2022-12-06_13h43.56.132,dynamic target,2022.1.3,120.1052745113644,
0,2,3,2,mix,0,5,5,5,,,,,,,None,163.70468441961566,None,162.72224301535243,None,163.2051104916991,None,1,[0.008702967301360331],[0.5176049392921414],163.70468441961566,None,[1 2 3 1 1 3 3 0],space,0,2.7218055543089577,0.002403578941084561,None,163.7213424429683,None,1,166.44402548157996,None,None,166.94360819713148,None,,,,,,,,,,,,,,,,,,,,,,,,,,,,,,,,,,,,,,,,,,,,,,14_CS,14,30,F,2022-12-06_13h43.56.132,dynamic target,2022.1.3,120.1052745113644,
0,1,2,2,mix,0,6,6,6,,,,,,,None,167.97608480004965,None,167.00195861664542,None,167.47649515701778,None,1,[0.008681158569743275],[0.5173753061644675],167.97608480004965,None,[0 1 3 0 2 0 2 3],space,0,3.586696605256293,0.0027175605500815436,None,167.9927290325868,None,1,171.581361487124,None,None,172.08093458117656,None,,,,,,,,,,,,,,,,,,,,,,,,,,,,,,,,,,,,,,,,,,,,,,14_CS,14,30,F,2022-12-06_13h43.56.132,dynamic target,2022.1.3,120.1052745113644,
0,8,4,2,mix,0,7,7,7,,,,,,,None,173.10509019033452,None,172.11425531034547,173.11340156259575,172.60550535805305,None,3,"[0.008694949387063389, 0.1667886993564025, 0.18346885215942166]","[0.05017772513747332, 0.17507601786746818, 0.6836197493485088]",173.10509019033452,None,[1 1 2 0 2 2 0 1],space,0,5.379440198379598,0.0028230763327883324,None,173.2882556445329,None,1,178.6670415844419,None,None,179.16661243347772,None,,,,,,,,,,,,,,,,,,,,,,,,,,,,,,,,,,,,,,,,,,,,,,14_CS,14,30,F,2022-12-06_13h43.56.132,dynamic target,2022.1.3,120.1052745113644,
0,7,4,2,mix,0,8,8,8,,,,,,,None,180.19075745898772,None,179.19992482401358,180.19907941489691,179.69118449322013,None,2,"[0.008704250169103034, 0.559098940128024]","[0.4165621932152135, 1.0665416513129458]",180.19075745898772,None,[0 1 2 0 0 1 2 0],space,0,3.3344895133759564,0.0030899125940777594,None,180.75694359588124,None,1,184.0957884450272,None,None,184.59535448331263,None,,,,,,,,,,,,,,,,,,,,,,,,,,,,,,,,,,,,,,,,,,,,,,14_CS,14,30,F,2022-12-06_13h43.56.132,dynamic target,2022.1.3,120.1052745113644,
0,6,2,2,mix,0,9,9,9,,,,,,,None,185.61949886738876,None,184.63699813054154,185.63615143855714,185.11992205302158,None,2,"[0.008684365737281041, 0.6168776501217508]","[0.0335870522831101, 1.125327411620674]",185.61949886738876,None,[3 3 0 1 1 3 2 3],space,0,1.6707285396569205,0.0024462342571496265,None,186.24397140875044,None,1,187.9175568959363,None,None,188.41713095213964,None,,,,,,,,,,,,,,,,,,,,,,,,,,,,,,,,,,,,,,,,,,,,,,14_CS,14,30,F,2022-12-06_13h43.56.132,dynamic target,2022.1.3,120.1052745113644,
0,5,4,2,mix,0,10,10,10,,,,,,,None,189.44959632997416,None,188.47542235978835,189.47457983712047,188.95003266499043,None,2,"[0.008660311987114255, 0.8840747180020117]","[0.46658180503800395, 1.3915013933547016]",189.44959632997416,None,[1 1 0 1 1 0 2 1],space,0,2.2785895615816116,0.0028830503470089752,None,190.34051353793075,None,1,192.6219170710101,None,None,193.12150299372917,None,,,,,,,,,,,,,,,,,,,,,,,,,,,,,,,,,,,,,,,,,,,,,,14_CS,14,30,F,2022-12-06_13h43.56.132,dynamic target,2022.1.3,120.1052745113644,
0,4,4,2,mix,0,11,11,11,,,,,,,None,194.1456290969545,None,193.15481730856482,None,193.64605997978833,None,1,[0.00868821433687117],[0.5175154593453044],194.1456290969545,None,[3 3 3 1 3 3 1 1],space,0,1.768237629567011,0.002488889573214692,None,194.16232336128996,None,1,195.93579509027586,None,None,196.43535471422985,None,,,,,,,,,,,,,,,,,,,,,,,,,,,,,,,,,,,,,,,,,,,,,,14_CS,14,30,F,2022-12-06_13h43.56.132,dynamic target,2022.1.3,120.1052745113644,
0,3,2,2,mix,0,12,12,12,,,,,,,None,197.46782073349823,None,196.48532416596754,None,196.96825161633024,None,1,[0.00863689967081882],[0.5174599753627263],197.46782073349823,None,[2 0 3 1 2 0 2 2],space,0,1.3102632182653906,0.0024667601228429703,None,197.48447779470007,None,1,198.80002995493487,None,None,199.29960048325557,None,,,,,,,,,,,,,,,,,,,,,,,,,,,,,,,,,,,,,,,,,,,,,,14_CS,14,30,F,2022-12-06_13h43.56.132,dynamic target,2022.1.3,120.1052745113644,
1,2,1,2,mix,0,13,13,13,,,,,,,None,200.33205174955765,None,199.3579537892183,None,199.8324909710227,None,1,[0.00956826085348439],[0.5175821684097173],200.33205174955765,None,[2 1 2 3 0 3 2 0],space,0,2.9889808134557825,0.0024318020077771507,None,200.348722601575,None,1,203.3378624940142,None,None,203.83742115581737,None,,,,,,,,,,,,,,,,,,,,,,,,,,,,,,,,,,,,,,,,,,,,,,14_CS,14,30,F,2022-12-06_13h43.56.132,dynamic target,2022.1.3,120.1052745113644,
0,1,3,2,mix,0,14,14,14,,,,,,,None,204.8615902350757,None,203.870745092152,None,204.3620002713251,None,1,[0.008689176485859207],[0.5176937778087449],204.8615902350757,None,[3 0 2 1 0 0 1 3],space,0,2.5712297235822916,0.0023153818619903177,None,204.87822612897799,None,1,207.45105398719716,None,None,207.95062611910072,None,,,,,,,,,,,,,,,,,,,,,,,,,,,,,,,,,,,,,,,,,,,,,,14_CS,14,30,F,2022-12-06_13h43.56.132,dynamic target,2022.1.3,120.1052745113644,
1,8,1,2,mix,0,15,15,15,,,,,,,None,208.98309277980115,None,208.00896563424612,209.008072759063,208.48351564471886,None,1,[0.24170073479399434],[0.7418926837162871],208.98309277980115,None,[2 3 0 0 0 2 0 0],space,0,2.385165632205826,0.0028474507980718045,None,209.2245555428326,None,1,211.61420800463748,None,None,212.1137750050737,None,,,,,,,,,,,,,,,,,,,,,,,,,,,,,,,,,,,,,,,,,,,,,,14_CS,14,30,F,2022-12-06_13h43.56.132,dynamic target,2022.1.3,120.1052745113644,
0,7,1,2,mix,0,16,16,16,,,,,,,None,213.1379152198333,None,212.14710471430953,None,212.63835893133364,None,1,[0.008670574919960927],[0.5174942920439207],213.1379152198333,None,[2 2 3 3 0 3 2 3],space,0,2.1189884433060797,0.0027239748851570766,None,213.15457645035167,None,1,215.27779226347957,None,None,215.77734868026602,None,,,,,,,,,,,,,,,,,,,,,,,,,,,,,,,,,,,,,,,,,,,,,,14_CS,14,30,F,2022-12-06_13h43.56.132,dynamic target,2022.1.3,120.1052745113644,
0,6,1,2,mix,0,17,17,17,,,,,,,None,216.801486008575,None,215.81066780585206,None,216.30191208065844,None,1,[0.008561210539483],[0.5176552918092057],216.801486008575,None,[3 1 1 1 1 0 0 0],space,0,1.2546753237820667,0.002150854212231934,None,216.8181443526446,None,1,218.07540914626043,None,None,218.574981278164,None,,,,,,,,,,,,,,,,,,,,,,,,,,,,,,,,,,,,,,,,,,,,,,14_CS,14,30,F,2022-12-06_13h43.56.132,dynamic target,2022.1.3,120.1052745113644,
1,7,1,1,mix,0,18,18,18,,,,,,,None,219.59912726582297,None,218.6082933479829,None,219.09955173432354,None,1,[0.00861316663758771],[0.5177588832902984],219.59912726582297,None,[2 1 2 3 3 0 3 2],space,0,1.8970605320719187,0.0018926773009297904,None,219.6157801577083,None,1,221.51416942242395,None,None,222.01374861009282,None,,,,,,,,,,,,,,,,,,,,,,,,,,,,,,,,,,,,,,,,,,,,,,14_CS,14,30,F,2022-12-06_13h43.56.132,dynamic target,2022.1.3,120.1052745113644,
0,6,3,2,mix,0,19,19,19,,,,,,,None,223.03788241051916,None,222.04705971776275,223.04620853574488,222.5383065583028,None,2,"[0.008632409637357341, 0.8172492324447376]","[0.20006754292808182, 1.3246669277286856]",223.03788241051916,None,[3 3 0 1 2 1 0 0],space,0,2.355507038297219,0.0027614987338893116,None,223.86218708878005,None,1,226.21852639033023,None,None,226.7180988429489,None,,,,,,,,,,,,,,,,,,,,,,,,,,,,,,,,,,,,,,,,,,,,,,14_CS,14,30,F,2022-12-06_13h43.56.132,dynamic target,2022.1.3,120.1052745113644,
0,5,4,2,mix,0,20,20,20,,,,,,,None,227.74225252780707,None,226.75141604423516,227.75056871081688,227.24266897839152,None,1,[0.8253284058428108],[1.3331694471198716],227.74225252780707,None,[2 0 2 0 1 0 3 2],space,0,3.1624542101708357,0.0029770203291263897,None,228.57487178549673,None,1,231.7388728156384,None,None,232.23843949535768,None,,,,,,,,,,,,,,,,,,,,,,,,,,,,,,,,,,,,,,,,,,,,,,14_CS,14,30,F,2022-12-06_13h43.56.132,dynamic target,2022.1.3,120.1052745113644,
0,6,2,1,mix,0,21,21,21,,,,,,,None,233.26257746510055,None,232.27175316875946,233.2709029488924,232.76299712285072,None,2,"[0.00861092162085697, 0.7753107183179964]","[0.49981029609443794, 1.2828967898494739]",233.26257746510055,None,[1 2 1 1 2 2 0 2],space,0,1.6917309908931202,0.0031069105771166505,None,234.04524798934654,None,1,235.73548797200237,None,None,236.23506331107166,None,,,,,,,,,,,,,,,,,,,,,,,,,,,,,,,,,,,,,,,,,,,,,,14_CS,14,30,F,2022-12-06_13h43.56.132,dynamic target,2022.1.3,120.1052745113644,
1,5,4,2,mix,0,22,22,22,,,,,,,None,237.2675261231725,None,236.2934156548854,237.29250417813637,236.76794738450735,None,2,"[0.007789245537423994, 0.6995972119457292]","[0.4574221372113243, 1.2073490939928888]",237.2675261231725,None,[2 3 0 2 2 0 2 0],space,0,1.8574581181019312,0.0025302620233560447,None,237.97527851836458,None,1,239.83204068483246,None,None,240.33159742233585,None,,,,,,,,,,,,,,,,,,,,,,,,,,,,,,,,,,,,,,,,,,,,,,14_CS,14,30,F,2022-12-06_13h43.56.132,dynamic target,2022.1.3,120.1052745113644,
1,4,1,2,mix,0,23,23,23,,,,,,,None,241.36405991371976,None,240.38156719479048,None,240.86449368300418,None,1,[0.009474932305238326],[0.5175186665128422],241.36405991371976,None,[1 1 2 3 1 1 2 1],space,0,4.739742595706048,0.0025831802704487927,None,241.38072114423994,None,1,246.11839929031703,None,None,246.61797302580345,None,,,,,,,,,,,,,,,,,,,,,,,,,,,,,,,,,,,,,,,,,,,,,,14_CS,14,30,F,2022-12-06_13h43.56.132,dynamic target,2022.1.3,120.1052745113644,
0,3,1,2,mix,0,24,24,24,,,,,,,None,247.6504181984892,None,246.66796749344212,None,247.15084266698977,None,1,[0.008501236523443367],[0.5171985912857053],247.6504181984892,None,[1 2 3 2 0 2 3 3],space,0,2.85278687994105,0.0026880546192842303,None,247.6670698075086,None,1,250.52299297919126,None,None,251.02256190392728,None,,,,,,,,,,,,,,,,,,,,,,,,,,,,,,,,,,,,,,,,,,,,,,14_CS,14,30,F,2022-12-06_13h43.56.132,dynamic target,2022.1.3,120.1052745113644,
1,2,2,2,mix,0,25,25,25,,,,,,,None,252.046701477253,None,251.05588455739598,252.0550301682124,251.54712402145196,None,3,"[0.008561851971535361, 0.3415298890286067, 0.36648068307476933]","[0.31657492566591827, 0.35827899591276946, 0.8668926436257607]",252.046701477253,None,[0 0 1 1 2 0 0 0],space,0,3.275859942083116,0.0027284649167995667,None,252.41306477802937,None,1,255.69362322270717,None,None,256.19317867734463,None,,,,,,,,,,,,,,,,,,,,,,,,,,,,,,,,,,,,,,,,,,,,,,14_CS,14,30,F,2022-12-06_13h43.56.132,dynamic target,2022.1.3,120.1052745113644,
0,2,2,0,mix,0,26,26,26,,,,,,,None,257.22566169459606,None,256.24321098954715,None,256.72609514316173,None,1,[0.008654859802845749],[0.5169285478550592],257.22566169459606,None,[1 1 2 3 3 0 0 0],space,0,4.397430158023781,0.0029475143983290764,None,257.2423136243324,None,1,261.6386119767776,None,None,262.1381796186477,None,,,,,,,,,,,,,,,,,,,,,,,,,,,,,,,,,,,,,,,,,,,,,,14_CS,14,30,F,2022-12-06_13h43.56.132,dynamic target,2022.1.3,120.1052745113644,
1,1,2,2,mix,0,27,27,27,,,,,,,None,263.17064595863303,None,262.18814073175236,263.187292756902,262.67106978569973,None,2,"[0.008703929452167358, 0.7249322245515941]","[0.42484277667426795, 1.225154962272427]",263.17064595863303,None,[2 1 1 2 0 0 0 2],space,0,2.6249545749851677,0.0027236541700403905,None,263.89502398479453,None,1,266.5178076322227,None,None,267.01739163064195,None,,,,,,,,,,,,,,,,,,,,,,,,,,,,,,,,,,,,,,,,,,,,,,14_CS,14,30,F,2022-12-06_13h43.56.132,dynamic target,2022.1.3,120.1052745113644,
1,8,2,2,mix,0,28,28,28,,,,,,,None,268.04984514195894,None,267.0757215242884,None,267.55028275984296,None,1,[0.008674423519551056],[0.5177309809405415],268.04984514195894,None,[3 3 3 0 1 2 0 1],space,0,3.3003973323520768,0.0024205769223044626,None,268.06649867527995,None,1,271.3720409478192,None,None,271.8716095518401,None,,,,,,,,,,,,,,,,,,,,,,,,,,,,,,,,,,,,,,,,,,,,,,14_CS,14,30,F,2022-12-06_13h43.56.132,dynamic target,2022.1.3,120.1052745113644,
0,8,3,0,mix,0,29,29,29,,,,,,,None,272.9040800611401,None,271.9216357704263,272.92073199087645,272.40450901967415,None,2,"[0.009336382707260782, 0.8831103230040753]","[0.1251551867735543, 1.3833715467244474]",272.9040800611401,None,[2 0 0 3 2 3 2 0],space,0,2.3650342474193167,0.002629363469168311,None,273.7866858968373,None,1,276.1513436264122,None,None,276.65090485394904,None,,,,,,,,,,,,,,,,,,,,,,,,,,,,,,,,,,,,,,,,,,,,,,14_CS,14,30,F,2022-12-06_13h43.56.132,dynamic target,2022.1.3,120.1052745113644,
1,7,3,2,mix,0,30,30,30,,,,,,,None,277.6833724768003,None,276.70926874356337,None,277.18379373813514,None,1,[0.009488081688687089],[0.5176135986439476],277.6833724768003,None,[3 0 1 1 2 3 1 1],space,0,1.3474179226832348,0.002573238052718807,None,277.7000272929872,None,1,279.0488820298269,None,None,279.54845544459823,None,,,,,,,,,,,,,,,,,,,,,,,,,,,,,,,,,,,,,,,,,,,,,,14_CS,14,30,F,2022-12-06_13h43.56.132,dynamic target,2022.1.3,120.1052745113644,
1,6,3,2,mix,0,31,31,31,,,,,,,None,280.57259501792214,None,279.5817806637988,280.5809224260156,280.0730182035568,None,2,"[0.008972048581199488, 0.7088466804398195]","[0.07510959690262098, 1.2162768836733449]",280.57259501792214,None,[0 0 2 2 3 3 3 2],space,0,1.903260947272429,0.003085743275732966,None,281.2886565403587,None,1,283.1953898904321,None,None,283.6949581737361,None,,,,,,,,,,,,,,,,,,,,,,,,,,,,,,,,,,,,,,,,,,,,,,14_CS,14,30,F,2022-12-06_13h43.56.132,dynamic target,2022.1.3,120.1052745113644,
0,5,1,2,mix,0,32,32,32,,,,,,,None,284.72741245477374,None,283.7533073103823,None,284.21951483907833,None,1,[0.009054793479663203],[0.5164798652476748],284.72741245477374,None,[0 1 2 3 1 3 1 1],space,0,2.6464339318954444,0.002082541563140694,None,284.7357464696306,None,1,287.38350977560367,None,None,287.8830796624905,None,,,,,,,,,,,,,,,,,,,,,,,,,,,,,,,,,,,,,,,,,,,,,,14_CS,14,30,F,2022-12-06_13h43.56.132,dynamic target,2022.1.3,120.1052745113644,
1,4,4,2,mix,0,33,33,33,,,,,,,None,288.9155495303585,None,287.92472298900066,None,288.41596533950906,None,1,[0.008687893618116505],[0.5177499032233754],288.9155495303585,None,[2 2 3 0 2 2 3 1],space,0,2.0344427208165143,0.002267595076773432,None,288.93220113937787,None,1,290.97214062655803,None,None,291.4717137206106,None,,,,,,,,,,,,,,,,,,,,,,,,,,,,,,,,,,,,,,,,,,,,,,14_CS,14,30,F,2022-12-06_13h43.56.132,dynamic target,2022.1.3,120.1052745113644,
1,3,1,2,mix,0,34,34,34,,,,,,,None,292.5041781362961,None,291.5133583299885,None,292.00459971834607,None,1,[0.008942542648583185],[0.5174000013466866],292.5041781362961,None,[1 1 2 0 0 3 2 3],space,0,2.765796334348124,0.0025363556378579233,None,292.5208329524812,None,1,295.28515976660674,None,None,295.78473414352703,None,,,,,,,,,,,,,,,,,,,,,,,,,,,,,,,,,,,,,,,,,,,,,,14_CS,14,30,F,2022-12-06_13h43.56.132,dynamic target,2022.1.3,120.1052745113644,
0,2,1,2,mix,0,35,35,35,,,,,,,None,296.8171992006446,None,295.8430743001081,296.8421795006234,296.3176227069962,None,2,"[0.008280583460873459, 0.5913704126687662]","[0.47447367990571365, 1.0919924426325451]",296.8171992006446,None,[1 1 0 2 3 3 1 1],space,0,2.757889065080235,0.0022714436781825498,None,297.40837974905116,None,1,300.1643820415338,None,None,300.6639435897876,None,,,,,,,,,,,,,,,,,,,,,,,,,,,,,,,,,,,,,,,,,,,,,,14_CS,14,30,F,2022-12-06_13h43.56.132,dynamic target,2022.1.3,120.1052745113644,
1,1,3,2,mix,0,36,36,36,,,,,,,None,301.6880838045454,None,300.69725694247245,None,301.1885095559119,None,1,[0.008647804037536844],[0.5169000040732499],301.6880838045454,None,[2 2 1 1 1 1 2 0],space,0,2.28608952068862,0.0030244863955886103,None,301.7047363757156,None,1,303.9944910499198,None,None,304.4940468252724,None,,,,,,,,,,,,,,,,,,,,,,,,,,,,,,,,,,,,,,,,,,,,,,14_CS,14,30,F,2022-12-06_13h43.56.132,dynamic target,2022.1.3,120.1052745113644,
1,8,2,2,mix,0,37,37,37,,,,,,,None,305.5181796635479,None,304.5273531221919,None,305.01861535713215,None,1,[0.00867410280261538],[0.5176376523922954],305.5181796635479,None,[2 2 2 3 0 2 0 0],space,0,3.2868746350741276,0.0024244255237135803,None,305.53483031041833,None,1,308.82371840820633,None,None,309.32329406799255,None,,,,,,,,,,,,,,,,,,,,,,,,,,,,,,,,,,,,,,,,,,,,,,14_CS,14,30,F,2022-12-06_13h43.56.132,dynamic target,2022.1.3,120.1052745113644,
0,7,1,2,mix,0,38,38,38,,,,,,,None,310.35575720081033,None,309.3732641611641,None,309.85617910357723,None,1,[0.009097769512663945],[0.517544644560985],310.35575720081033,None,[1 3 0 1 2 2 0 2],space,0,2.865235817838766,0.0024597043557150755,None,310.3724123377124,None,1,313.2366539374216,None,None,313.73625076450736,None,,,,,,,,,,,,,,,,,,,,,,,,,,,,,,,,,,,,,,,,,,,,,,14_CS,14,30,F,2022-12-06_13h43.56.132,dynamic target,2022.1.3,120.1052745113644,
1,6,2,2,mix,0,39,39,39,,,,,,,None,314.7686959371931,None,313.78620546327875,314.785369034229,314.2691194435429,None,1,[0.8248335400348878],[1.325056919189592],314.7686959371931,None,[2 0 2 0 0 3 2 2],space,0,1.2926090489672788,0.0025472600045759464,None,315.59299612542054,None,1,316.8835744000098,None,None,317.3831484562132,None,,,,,,,,,,,,,,,,,,,,,,,,,,,,,,,,,,,,,,,,,,,,,,14_CS,14,30,F,2022-12-06_13h43.56.132,dynamic target,2022.1.3,120.1052745113644,
0,5,2,2,mix,0,40,40,40,,,,,,,None,318.4156208898148,None,317.43318878633363,None,317.916039585416,None,1,[0.008744981185373035],[0.5171819140177831],318.4156208898148,None,[3 0 0 0 0 3 0 3],space,0,2.4856015823625057,0.002951683713035891,None,318.4322654430671,None,1,320.92185321632314,None,None,321.42140033232573,None,,,,,,,,,,,,,,,,,,,,,,,,,,,,,,,,,,,,,,,,,,,,,,14_CS,14,30,F,2022-12-06_13h43.56.132,dynamic target,2022.1.3,120.1052745113644,
0,4,3,2,mix,0,41,41,41,,,,,,,None,322.4538644272943,None,321.46303628235364,None,321.95428761292715,None,1,[0.008621184555522632],[0.5176620268593979],322.4538644272943,None,[0 3 3 2 0 0 2 1],space,0,2.670436046060786,0.0026242320036544697,None,322.47052501638063,None,0,325.1515896160927,None,None,325.65116976591054,None,,,,,,,,,,,,,,,,,,,,,,,,,,,,,,,,,,,,,,,,,,,,,,14_CS,14,30,F,2022-12-06_13h43.56.132,dynamic target,2022.1.3,120.1052745113644,
0,3,1,2,mix,0,42,42,42,,,,,,,None,326.6752949069869,None,325.6844706106476,326.6836245600971,326.1757168097538,None,1,[0.2749904827323917],[0.7755586322964518],326.6752949069869,None,[2 0 0 2 3 2 0 2],space,0,2.446842653209387,0.0023692622598900925,None,326.95006601952446,None,1,329.40632331382403,None,None,329.9059002564762,None,,,,,,,,,,,,,,,,,,,,,,,,,,,,,,,,,,,,,,,,,,,,,,14_CS,14,30,F,2022-12-06_13h43.56.132,dynamic target,2022.1.3,120.1052745113644,
0,2,4,2,mix,0,43,43,43,,,,,,,None,330.9383588992605,None,329.9558604074318,None,330.4387824056121,None,1,[0.008650049052448594],[0.5172341908328235],330.9383588992605,None,[3 0 3 1 1 0 1 2],space,0,2.1225265895063785,0.0029141598624846665,None,330.95501403616436,None,1,333.0782166999088,None,None,333.57778851109543,None,,,,,,,,,,,,,,,,,,,,,,,,,,,,,,,,,,,,,,,,,,,,,,14_CS,14,30,F,2022-12-06_13h43.56.132,dynamic target,2022.1.3,120.1052745113644,
1,1,2,2,mix,0,44,44,44,,,,,,,None,334.6019354609034,None,333.61110571237987,334.61025677537873,334.1023746823703,None,2,"[0.00952656768822635, 0.7089890786355681]","[0.15011367802071618, 1.2165818852172379]",334.6019354609034,None,[0 0 3 2 2 2 1 2],space,0,2.702903155764943,0.0028073612174921436,None,335.31799473832143,None,1,338.02404060016306,None,None,338.52361305278174,None,,,,,,,,,,,,,,,,,,,,,,,,,,,,,,,,,,,,,,,,,,,,,,14_CS,14,30,F,2022-12-06_13h43.56.132,dynamic target,2022.1.3,120.1052745113644,
1,6,4,0,mix,0,45,45,45,,,,,,,None,339.5560473211008,None,338.5652573414445,None,339.05649616406845,None,1,[0.00919462594356446],[0.5177967278559663],339.5560473211008,None,[3 3 1 0 2 0 3 3],space,0,2.30411507988174,0.0023779216080583865,None,339.57270181657077,None,1,341.87910072331215,None,None,342.3787010782806,None,,,,,,,,,,,,,,,,,,,,,,,,,,,,,,,,,,,,,,,,,,,,,,14_CS,14,30,F,2022-12-06_13h43.56.132,dynamic target,2022.1.3,120.1052745113644,
1,5,2,2,mix,0,46,46,46,,,,,,,None,343.4111549103163,None,342.4370271233274,None,342.91157296448364,None,1,[0.00865999127017858],[0.5170010298206762],343.4111549103163,None,[0 2 0 3 3 2 0 3],space,0,2.3050364988484944,0.003047898711884045,None,343.42780587790185,None,1,345.73420318106037,None,None,346.23375799426213,None,,,,,,,,,,,,,,,,,,,,,,,,,,,,,,,,,,,,,,,,,,,,,,14_CS,14,30,F,2022-12-06_13h43.56.132,dynamic target,2022.1.3,120.1052745113644,
0,4,1,2,mix,0,47,47,47,,,,,,,None,347.2578978883048,None,346.2670822513155,None,346.7583210739376,None,1,[0.008672499219755991],[0.5174699175786373],347.2578978883048,None,[3 3 0 0 0 0 2 2],space,0,1.7862269477773225,0.0027060147513111588,None,347.2745546287897,None,1,349.06470683129555,None,None,349.56427735961626,None,,,,,,,,,,,,,,,,,,,,,,,,,,,,,,,,,,,,,,,,,,,,,,14_CS,14,30,F,2022-12-06_13h43.56.132,dynamic target,2022.1.3,120.1052745113644,
1,5,4,1,mix,0,48,48,48,,,,,,,None,350.5884281580238,None,349.60591876182843,None,350.088838194275,None,1,[0.008639786121420912],[0.5171857626173733],350.5884281580238,None,[3 2 1 0 3 3 0 0],space,0,1.6711079474644066,0.002778496718747192,None,350.6050707869763,None,1,352.2786617263464,None,None,352.7782274439167,None,,,,,,,,,,,,,,,,,,,,,,,,,,,,,,,,,,,,,,,,,,,,,,14_CS,14,30,F,2022-12-06_13h43.56.132,dynamic target,2022.1.3,120.1052745113644,
1,6,4,1,mix,0,49,49,49,,,,,,,None,353.8023660550916,None,352.8115449659181,None,353.3027962964916,None,1,[0.00875364053354133],[0.5178730584211735],353.8023660550916,None,[0 1 3 3 1 0 2 3],space,0,1.6569194423991576,0.0023278898079297505,None,353.8190224748614,None,1,355.47596886097745,None,None,355.9755220705982,None,,,,,,,,,,,,,,,,,,,,,,,,,,,,,,,,,,,,,,,,,,,,,,14_CS,14,30,F,2022-12-06_13h43.56.132,dynamic target,2022.1.3,120.1052745113644,
1,5,1,2,mix,0,50,50,50,,,,,,,None,356.9996629267898,None,356.00884055474853,357.0079961077827,356.5000864331396,None,2,"[0.00943676702263474, 0.7339251197154226]","[0.23337525100032508, 1.2411847016865067]",356.9996629267898,None,[2 1 3 0 0 3 1 0],space,0,3.512451339754989,0.0033663703561614966,None,357.74069095838786,None,1,361.25440111455464,None,None,361.7539722843074,None,,,,,,,,,,,,,,,,,,,,,,,,,,,,,,,,,,,,,,,,,,,,,,14_CS,14,30,F,2022-12-06_13h43.56.132,dynamic target,2022.1.3,120.1052745113644,
0,4,1,2,mix,0,51,51,51,,,,,,,None,362.7781301384821,None,361.78728275054164,362.7864386242909,362.27855172053205,None,3,"[0.008685327886269079, 0.5419537481684529, 0.7089040887203737]","[0.4831397647922131, 0.5501300987125433, 1.2165308912681212]",362.7781301384821,None,[2 0 2 2 3 0 1 3],space,0,1.7422384127567057,0.0027897218005819013,None,363.49420930033375,None,1,365.2343749248321,None,None,365.73394801888463,None,,,,,,,,,,,,,,,,,,,,,,,,,,,,,,,,,,,,,,,,,,,,,,14_CS,14,30,F,2022-12-06_13h43.56.132,dynamic target,2022.1.3,120.1052745113644,
1,3,2,2,mix,0,52,52,52,,,,,,,None,366.75808278145996,None,365.76725527795315,366.7664092274026,366.25849955275953,None,2,"[0.00939443242350535, 0.7171304710645927]","[0.5081174990391446, 1.2246222518988361]",366.75808278145996,None,[1 1 0 3 1 1 0 3],space,0,2.153826290565121,0.003219161408196669,None,367.48247042912226,None,1,369.6389801595051,None,None,370.13855325355763,None,,,,,,,,,,,,,,,,,,,,,,,,,,,,,,,,,,,,,,,,,,,,,,14_CS,14,30,F,2022-12-06_13h43.56.132,dynamic target,2022.1.3,120.1052745113644,
0,2,1,2,mix,0,53,53,53,,,,,,,None,371.16270385953504,None,370.17186981341,None,370.6631160125162,None,1,[0.008646200454677455],[0.5092175571844564],371.16270385953504,None,[1 2 1 1 1 0 0 2],space,0,2.351974985713241,0.0025588058033463312,None,371.171002274843,None,1,373.5273675544413,None,None,374.02693263057773,None,,,,,,,,,,,,,,,,,,,,,,,,,,,,,,,,,,,,,,,,,,,,,,14_CS,14,30,F,2022-12-06_13h43.56.132,dynamic target,2022.1.3,120.1052745113644,
0,1,2,2,mix,0,54,54,54,,,,,,,None,375.05107124175265,None,374.06861829168884,None,374.55149282380444,None,1,[0.00898744297956],[0.5174856326939334],375.05107124175265,None,[1 0 0 0 3 2 3 1],space,0,2.087165653372722,0.0025940846353478264,None,375.0677292651053,None,1,377.1576222964777,None,None,377.65719795626393,None,,,,,,,,,,,,,,,,,,,,,,,,,,,,,,,,,,,,,,,,,,,,,,14_CS,14,30,F,2022-12-06_13h43.56.132,dynamic target,2022.1.3,120.1052745113644,
1,8,3,2,mix,0,55,55,55,,,,,,,None,378.68135709330636,None,377.6988951631756,None,378.1817658466898,None,1,[0.008625353870229446],[0.5173198221818893],378.68135709330636,None,[3 1 0 0 1 0 2 1],space,0,5.36944859153482,0.002553032905780128,None,378.6979974772421,None,1,384.06844831185845,None,None,384.568020443762,None,,,,,,,,,,,,,,,,,,,,,,,,,,,,,,,,,,,,,,,,,,,,,,14_CS,14,30,F,2022-12-06_13h43.56.132,dynamic target,2022.1.3,120.1052745113644,
1,7,2,2,mix,0,56,56,56,,,,,,,None,385.5921606585198,None,384.60133187214706,385.60048806661325,385.09258191985464,None,4,"[0.008631126771433628, 0.4664435761569621, 0.4831365576264943, 0.700576039194857]","[0.33326149280219397, 0.4747834922000038, 0.5177406024413358, 1.2084918074542657]",385.5921606585198,None,[0 1 1 3 2 2 0 2],space,0,1.7186990927348234,0.0023304555434151553,None,386.2998976593135,None,1,388.0234398978573,None,None,388.52301363334374,None,,,,,,,,,,,,,,,,,,,,,,,,,,,,,,,,,,,,,,,,,,,,,,14_CS,14,30,F,2022-12-06_13h43.56.132,dynamic target,2022.1.3,120.1052745113644,
0,6,1,2,mix,0,57,57,57,,,,,,,None,389.54714563775525,None,388.5563273067455,None,389.0475844102184,None,1,[0.008685327886269079],[0.5088506573247287],389.54714563775525,None,[0 3 0 0 0 2 0 2],space,0,1.8080052126188093,0.0028416779005056014,None,389.5554626546291,None,1,391.36229308563634,None,None,391.8618546338901,None,,,,,,,,,,,,,,,,,,,,,,,,,,,,,,,,,,,,,,,,,,,,,,14_CS,14,30,F,2022-12-06_13h43.56.132,dynamic target,2022.1.3,120.1052745113644,
1,5,4,2,mix,0,58,58,58,,,,,,,None,392.88599645223076,None,391.89516413797537,392.89432001172463,392.38641707213174,None,4,"[0.008708098768693162, 0.27518932706334454, 0.29174343821796356, 0.8336179693687882]","[0.050196326703371597, 0.28332270157625317, 0.34998109375192143, 1.3416812672930973]",392.88599645223076,None,[1 1 0 2 0 1 2 3],space,0,4.244136895029442,0.0028205106009409064,None,393.72695177736205,None,1,397.97336287775215,None,None,398.472942065421,None,,,,,,,,,,,,,,,,,,,,,,,,,,,,,,,,,,,,,,,,,,,,,,14_CS,14,30,F,2022-12-06_13h43.56.132,dynamic target,2022.1.3,120.1052745113644,
1,4,2,2,mix,0,59,59,59,,,,,,,None,399.5054090468384,None,398.53128735346763,399.5303797253182,399.00582389384,None,2,"[0.009171534344204701, 0.7921788110852503]","[0.10010208411404165, 1.2999816870797076]",399.5054090468384,None,[2 0 1 0 0 2 1 1],space,0,1.714463067080942,0.0026094790373463184,None,400.3047292558058,None,1,402.0199418412394,None,space,402.52781302988296,None,10.567867650826884,,,,,,,,,,,,,,,,,,,,,,,,,,,,,,,,,,,,,,,,,,,,,14_CS,14,30,F,2022-12-06_13h43.56.132,dynamic target,2022.1.3,120.1052745113644,
0,3,1,2,mix,0,60,60,60,,,,,,,None,414.1430245569536,None,413.1522275215302,414.1513522857622,413.64345191190296,None,2,"[0.008665764171382762, 0.7168184137553908]","[0.21670600256584294, 1.2247755544631218]",414.1430245569536,None,[3 2 1 2 0 2 2 0],space,0,2.03095877573287,0.0028131341186963255,None,414.86741380819876,None,1,416.89902877373606,None,None,417.3986124514384,None,,,,,,,,,,,,,,,,,,,,,,,,,,,,,,,,,,,,,,,,,,,,,,14_CS,14,30,F,2022-12-06_13h43.56.132,dynamic target,2022.1.3,120.1052745113644,
1,2,3,2,mix,0,61,61,61,,,,,,,None,418.4310534548076,None,417.44862327562623,None,417.93148946910696,None,1,[0.008669292054037214],[0.5172252107677195],418.4310534548076,None,[0 1 3 3 2 2 1 1],space,0,3.3306781165829307,0.002911273413701565,None,418.4477281554264,None,1,421.77821993914586,None,None,422.27781676623164,None,,,,,,,,,,,,,,,,,,,,,,,,,,,,,,,,,,,,,,,,,,,,,,14_CS,14,30,F,2022-12-06_13h43.56.132,dynamic target,2022.1.3,120.1052745113644,
1,1,2,2,mix,0,62,62,62,,,,,,,None,423.30197558255713,None,422.3111262703187,423.31027605044983,422.8023766387414,None,2,"[0.008643955436127726, 0.725740109819526]","[0.033538944782776525, 1.2331414485543064]",423.30197558255713,None,[2 1 2 1 3 0 0 0],space,0,2.4294040055046935,0.0022756129928893643,None,424.034665301695,None,1,426.4659422960158,None,None,426.9655221251185,None,,,,,,,,,,,,,,,,,,,,,,,,,,,,,,,,,,,,,,,,,,,,,,14_CS,14,30,F,2022-12-06_13h43.56.132,dynamic target,2022.1.3,120.1052745113644,
0,8,2,2,mix,0,63,63,63,,,,,,,None,427.9979810886198,None,427.0155371186229,428.01463911197243,427.49840267067157,None,1,[0.8841199390517431],[1.391308321924953],427.9979810886198,None,[1 1 3 0 0 1 1 3],space,0,1.161141516877251,0.002712749801503378,None,428.88890214517596,None,0,430.06290280008034,None,None,430.5624710833825,None,,,,,,,,,,,,,,,,,,,,,,,,,,,,,,,,,,,,,,,,,,,,,,14_CS,14,30,F,2022-12-06_13h43.56.132,dynamic target,2022.1.3,120.1052745113644,
0,7,4,2,mix,0,64,64,64,,,,,,,None,431.5866078985444,None,430.59579020896854,None,431.07870899998306,None,1,[0.008675385668539093],[0.5167322692595917],431.5866078985444,None,[1 1 3 0 0 0 2 0],space,0,2.02190686870199,0.0027281442016828805,None,431.59494191340127,None,0,433.6182275465453,None,None,434.1178025648995,None,,,,,,,,,,,,,,,,,,,,,,,,,,,,,,,,,,,,,,,,,,,,,,14_CS,14,30,F,2022-12-06_13h43.56.132,dynamic target,2022.1.3,120.1052745113644,
0,6,4,2,mix,0,65,65,65,,,,,,,None,435.14194374180624,None,434.15111238970167,435.1502673013001,434.6423630788413,None,1,[0.10012228926279931],[0.6006076939283957],435.14194374180624,None,[1 3 3 2 1 2 1 0],space,0,3.3992085319077887,0.0024744573238422163,None,435.24185564094114,None,1,438.64732328271384,None,None,439.1468883588503,None,,,,,,,,,,,,,,,,,,,,,,,,,,,,,,,,,,,,,,,,,,,,,,14_CS,14,30,F,2022-12-06_13h43.56.132,dynamic target,2022.1.3,120.1052745113644,
1,5,1,2,mix,0,66,66,66,,,,,,,None,440.1793492466513,None,439.2051996509308,440.2043263394644,439.679772432286,None,3,"[0.008583019272919046, 0.8424379982534447, 0.8920826923022105]","[0.03351489103624772, 0.8747992714615975, 1.3996113555513148]",440.1793492466513,None,[3 0 2 2 3 3 0 1],space,0,1.9463084996114048,0.002841677898686612,None,441.0785929005506,None,1,443.02694821740806,None,None,443.5265132935445,None,,,,,,,,,,,,,,,,,,,,,,,,,,,,,,,,,,,,,,,,,,,,,,14_CS,14,30,F,2022-12-06_13h43.56.132,dynamic target,2022.1.3,120.1052745113644,
0,4,4,2,mix,0,67,67,67,,,,,,,None,444.55897995424493,None,443.5848451114907,444.58395736777493,444.05940281916264,None,3,"[0.008667688471177826, 0.5250391514873627, 0.5504392695747811]","[0.483776708080768, 0.5422504110792943, 1.0580667135564]",444.55897995424493,None,[1 2 2 2 3 0 2 0],space,0,2.3088215968764416,0.0032012012761697406,None,445.11684028662967,None,1,447.4232279682874,None,None,447.92279881732503,None,,,,,,,,,,,,,,,,,,,,,,,,,,,,,,,,,,,,,,,,,,,,,,14_CS,14,30,F,2022-12-06_13h43.56.132,dynamic target,2022.1.3,120.1052745113644,
1,3,4,2,mix,0,68,68,68,,,,,,,None,448.95526740232526,None,447.96445144461904,448.96357268096835,448.45568321147584,None,2,"[0.00871194737010228, 0.741686142186154]","[0.15013933535374235, 1.2502497580990166]",448.95526740232526,None,[1 0 1 0 3 0 3 1],space,0,1.8160936867989221,0.0024022960733418586,None,449.70464016071674,None,1,451.5197729839183,None,None,452.0193473608386,None,,,,,,,,,,,,,,,,,,,,,,,,,,,,,,,,,,,,,,,,,,,,,,14_CS,14,30,F,2022-12-06_13h43.56.132,dynamic target,2022.1.3,120.1052745113644,
0,2,2,2,mix,0,69,69,69,,,,,,,None,453.0518008721556,None,452.06935850574155,None,452.5522240577902,None,1,[0.008626636737972149],[0.5174336765958287],453.0518008721556,None,[1 1 0 2 0 1 2 1],space,0,2.035960031338618,0.0026700944854383124,None,453.06845440547477,None,1,455.1084108906398,None,None,455.6079679488583,None,,,,,,,,,,,,,,,,,,,,,,,,,,,,,,,,,,,,,,,,,,,,,,14_CS,14,30,F,2022-12-06_13h43.56.132,dynamic target,2022.1.3,120.1052745113644,
1,1,1,2,mix,0,70,70,70,,,,,,,None,456.64043364740974,None,455.6496103132213,456.64876554553666,456.1408549087446,None,1,[0.5084362914003577],[1.0086102801888046],456.64043364740974,None,[1 1 3 2 2 2 0 3],space,0,1.187212574219302,0.002035075498497463,None,457.1483449256357,None,1,458.3389987931423,None,None,458.83856996289506,None,,,,,,,,,,,,,,,,,,,,,,,,,,,,,,,,,,,,,,,,,,,,,,14_CS,14,30,F,2022-12-06_13h43.56.132,dynamic target,2022.1.3,120.1052745113644,
0,6,2,0,mix,0,71,71,71,,,,,,,None,459.87103502001446,None,458.8802267595074,459.8793733324728,459.3714566020644,None,1,[0.817068989681502],[1.3243747548513056],459.87103502001446,None,[1 3 0 3 1 2 3 0],space,0,5.4972817624238814,0.0034228164877276868,None,460.6953441883088,None,1,466.1906939570872,None,None,466.69027282404096,None,,,,,,,,,,,,,,,,,,,,,,,,,,,,,,,,,,,,,,,,,,,,,,14_CS,14,30,F,2022-12-06_13h43.56.132,dynamic target,2022.1.3,120.1052745113644,
0,5,4,2,mix,0,72,72,72,,,,,,,None,467.7144133595157,None,466.72359451535885,467.7227308253932,467.2148266029326,None,2,"[0.008612204488599673, 0.7587861130978126]","[0.3250447319569503, 1.266553068826397]",467.7144133595157,None,[3 3 0 3 3 1 0 3],space,0,1.775588776146833,0.0028808053302782355,None,468.48042489826,None,1,470.2539267746124,None,None,470.7534940957656,None,,,,,,,,,,,,,,,,,,,,,,,,,,,,,,,,,,,,,,,,,,,,,,14_CS,14,30,F,2022-12-06_13h43.56.132,dynamic target,2022.1.3,120.1052745113644,
1,4,2,2,mix,0,73,73,73,,,,,,,None,471.78596011503396,None,470.7951351772608,None,471.28639933650084,None,1,[0.009525284820483648],[0.5174766526288295],471.78596011503396,None,[3 3 0 0 2 0 2 0],space,0,1.109376885702659,0.002603385419206461,None,471.8026162140868,None,0,472.9183381617222,None,None,473.41792697089187,None,,,,,,,,,,,,,,,,,,,,,,,,,,,,,,,,,,,,,,,,,,,,,,14_CS,14,30,F,2022-12-06_13h43.56.132,dynamic target,2022.1.3,120.1052745113644,
1,3,4,2,mix,0,74,74,74,,,,,,,None,474.450377916477,None,473.45954720580266,None,473.9508171379439,None,1,[0.009211623926603352],[0.5176366902433074],474.450377916477,None,[2 3 1 3 3 1 1 3],space,0,1.452247691089724,0.002594726071038167,None,474.4670308083623,None,1,475.9241347946463,None,None,476.4237043608162,None,,,,,,,,,,,,,,,,,,,,,,,,,,,,,,,,,,,,,,,,,,,,,,14_CS,14,30,F,2022-12-06_13h43.56.132,dynamic target,2022.1.3,120.1052745113644,
0,2,4,2,mix,0,75,75,75,,,,,,,None,477.4561678143509,None,476.4653480080433,477.4645131825764,476.9565926035666,None,4,"[0.008660632704049931, 0.3249716085574619, 1.0500087074578914, 1.8413533345083124]","[0.05857216301410517, 0.583867567111156, 1.491791417431159, 2.349052619021677]",477.4561678143509,None,[0 2 2 0 1 2 0 1],space,0,1.5435938896516745,0.0027858731991727836,None,479.30460674204005,None,1,480.8449719805885,None,None,481.34454667822394,None,,,,,,,,,,,,,,,,,,,,,,,,,,,,,,,,,,,,,,,,,,,,,,14_CS,14,30,F,2022-12-06_13h43.56.132,dynamic target,2022.1.3,120.1052745113644,
0,1,2,2,mix,0,76,76,76,,,,,,,None,482.3770094903266,None,481.3861935326204,482.3853352948354,481.8774413353094,None,2,"[0.008612204488599673, 0.35955576893866237]","[0.18339829449359968, 0.8669404304091586]",482.3770094903266,None,[0 2 2 1 3 0 2 2],space,0,1.079785642294155,0.002727823484747205,None,482.7433683010695,None,1,483.8257931242824,None,None,484.32535595540213,None,,,,,,,,,,,,,,,,,,,,,,,,,,,,,,,,,,,,,,,,,,,,,,14_CS,14,30,F,2022-12-06_13h43.56.132,dynamic target,2022.1.3,120.1052745113644,
0,8,4,2,mix,0,77,77,77,,,,,,,None,485.3578226161044,None,484.3753815325563,None,484.8582486881878,None,1,[0.008668009186294512],[0.5173506109822483],485.3578226161044,None,[3 1 1 3 3 0 2 2],space,0,1.9525807553436607,0.0028160205656604376,None,485.37448545020743,None,1,487.3311550257731,None,None,487.8307233090771,None,,,,,,,,,,,,,,,,,,,,,,,,,,,,,,,,,,,,,,,,,,,,,,14_CS,14,30,F,2022-12-06_13h43.56.132,dynamic target,2022.1.3,120.1052745113644,
1,1,3,1,mix,0,78,78,78,,,,,,,None,488.8631787446957,None,487.8890676349729,488.8881885506071,488.36361764544563,None,3,"[0.008682762152602663, 0.900607661855247, 1.6248561184875143]","[0.47486463351560815, 1.2667018813554023, 2.132405307604131]",488.8631787446957,None,[1 3 3 1 1 1 2 0],space,0,3.328121363363607,0.002956494463433046,None,490.49514611369887,None,1,493.82566515833605,None,None,494.325234403789,None,,,,,,,,,,,,,,,,,,,,,,,,,,,,,,,,,,,,,,,,,,,,,,14_CS,14,30,F,2022-12-06_13h43.56.132,dynamic target,2022.1.3,120.1052745113644,
1,8,3,2,mix,0,79,79,79,,,,,,,None,495.3493759014127,None,494.35854454930814,495.35772543895655,494.84979523844777,None,2,"[0.008699439418705879, 0.7090320546667499]","[0.3665461092732585, 1.216487273801249]",495.3493759014127,None,[3 0 0 2 2 1 2 3],space,0,1.6453316287352209,0.0030087712802924216,None,496.0654377445662,None,1,497.71404645965595,None,None,498.21362308159297,None,,,,,,,,,,,,,,,,,,,,,,,,,,,,,,,,,,,,,,,,,,,,,,14_CS,14,30,F,2022-12-06_13h43.56.132,dynamic target,2022.1.3,120.1052745113644,
1,7,1,2,mix,0,80,80,80,,,,,,,None,499.24608621441075,None,498.2719587481388,None,498.7465244737268,None,1,[0.008727983202334144],[0.5170786432536261],499.24608621441075,None,[1 3 3 0 3 0 2 0],space,0,1.5845372199801204,0.003243215158363455,None,499.2627336541136,None,1,500.8447266323419,None,None,501.344311592912,None,,,,,,,,,,,,,,,,,,,,,,,,,,,,,,,,,,,,,,,,,,,,,,14_CS,14,30,F,2022-12-06_13h43.56.132,dynamic target,2022.1.3,120.1052745113644,
0,6,3,2,mix,0,81,81,81,,,,,,,None,502.37676670781366,None,501.40265207021,502.4017454042096,501.87718957273137,None,4,"[0.008628881752883899, 0.5753695377534314, 0.8251667646454734, 0.8503208930542314]","[0.05141152213036548, 0.5916940157785575, 0.8421490325417835, 1.3584432028419542]",502.37676670781366,None,[1 0 1 1 1 0 0 0],space,0,1.819432988668268,0.0023994096227397677,None,503.2343790941486,None,1,505.05785215410833,None,None,505.557405684446,None,,,,,,,,,,,,,,,,,,,,,,,,,,,,,,,,,,,,,,,,,,,,,,14_CS,14,30,F,2022-12-06_13h43.56.132,dynamic target,2022.1.3,120.1052745113644,
0,7,4,1,mix,0,82,82,82,,,,,,,None,506.58987651446296,None,505.59904965239,506.5981978289401,506.0903029072633,None,2,"[0.326061403771746, 0.3915588016370748]","[0.34994132488827745, 0.8917789736242412]",506.58987651446296,None,[1 2 1 1 0 3 1 2],space,0,2.9373858413964626,0.0026999211349902907,None,506.9812181909201,None,1,509.9204000491336,None,None,510.4199657667021,None,,,,,,,,,,,,,,,,,,,,,,,,,,,,,,,,,,,,,,,,,,,,,,14_CS,14,30,F,2022-12-06_13h43.56.132,dynamic target,2022.1.3,120.1052745113644,
1,6,3,2,mix,0,83,83,83,,,,,,,None,511.4441069436107,None,510.4532736672045,511.45242954095374,510.944524997778,None,3,"[0.008915281732697622, 0.7673607937358611, 1.5079856844913593]","[0.24175589805963682, 1.1503266338841058, 2.015830895084946]",511.4441069436107,None,[3 0 2 0 3 2 1 0],space,0,2.142653163542491,0.0028775981645594584,None,512.9594873921469,None,1,515.0993445513595,None,None,515.598925342613,None,,,,,,,,,,,,,,,,,,,,,,,,,,,,,,,,,,,,,,,,,,,,,,14_CS,14,30,F,2022-12-06_13h43.56.132,dynamic target,2022.1.3,120.1052745113644,
1,5,4,2,mix,0,84,84,84,,,,,,,None,None,None,515.6488835692671,None,516.1234784800708,None,1,[0.008643955437946715],[0.5089574559733592],None,None,[0 2 3 2 0 3 2 0],space,0,2.3261778204014263,0.002819227733198204,None,516.6313846268313,None,1,518.9627452319855,None,None,519.4623237782205,None,,,,,,,,,,,,,,,,,,,,,,,,,,,,,,,,,,,,,,,,,,,,,,14_CS,14,30,F,2022-12-06_13h43.56.132,dynamic target,2022.1.3,120.1052745113644,
1,4,1,2,mix,0,85,85,85,,,,,,,None,520.4947875524722,None,519.5123564111418,520.5114365957579,519.9952078516562,None,2,"[0.008638823970613885, 0.15010566010460025]","[0.025253229858208215, 0.6504284614238713]",520.4947875524722,None,[3 2 1 0 1 2 1 1],space,0,4.744972843005598,0.0027656680504151154,None,520.64466710733,None,1,525.3906306476183,None,None,525.8902152874714,None,,,,,,,,,,,,,,,,,,,,,,,,,,,,,,,,,,,,,,,,,,,,,,14_CS,14,30,F,2022-12-06_13h43.56.132,dynamic target,2022.1.3,120.1052745113644,
1,3,4,2,mix,0,86,86,86,,,,,,,None,526.9143587093968,None,525.9235324887577,526.9227034361902,526.4147815743145,None,2,"[0.008601941553934012, 0.6170017674703558]","[0.35840728257790033, 1.1247000898329134]",526.9143587093968,None,[3 1 0 3 1 3 0 1],space,0,1.3229639187447901,0.0030995340948720695,None,527.5388274021589,None,1,528.8627079326379,None,None,529.3622977039565,None,,,,,,,,,,,,,,,,,,,,,,,,,,,,,,,,,,,,,,,,,,,,,,14_CS,14,30,F,2022-12-06_13h43.56.132,dynamic target,2022.1.3,120.1052745113644,
1,2,2,2,mix,0,87,87,87,,,,,,,None,530.3947483288248,None,529.4123075659936,530.411401862144,529.8951846638411,None,4,"[0.008669292052218225, 0.2500922862182051, 1.0419343448083964, 1.8827626661422983]","[0.033567809283340466, 0.47492813541430223, 1.4335630626774218, 2.390490494439291]",530.3947483288248,None,[1 1 0 2 1 0 1 2],space,0,1.0730611760718602,0.0027412935851316433,None,532.2848172412141,None,0,533.3672327636432,None,None,533.8668064991296,None,,,,,,,,,,,,,,,,,,,,,,,,,,,,,,,,,,,,,,,,,,,,,,14_CS,14,30,F,2022-12-06_13h43.56.132,dynamic target,2022.1.3,120.1052745113644,
1,1,2,2,mix,0,88,88,88,,,,,,,None,534.890937862109,None,533.9001214553991,None,534.3913686166561,None,1,[0.0086949493852444],[0.5090732346870936],534.890937862109,None,[1 0 0 1 2 1 3 3],space,0,1.3220675156771904,0.0024407820728811203,None,534.8992744426978,None,1,536.231478211952,None,None,536.7310583617716,None,,,,,,,,,,,,,,,,,,,,,,,,,,,,,,,,,,,,,,,,,,,,,,14_CS,14,30,F,2022-12-06_13h43.56.132,dynamic target,2022.1.3,120.1052745113644,
1,8,4,2,mix,0,89,89,89,,,,,,,None,537.7635176459899,None,536.789396594053,537.7884960216688,537.2639411523414,None,1,[0.058465685080591356],[0.5586678969357308],537.7635176459899,None,[0 2 1 2 1 1 1 2],space,0,1.0079011721336428,0.003035711479242309,None,537.821803088309,None,1,538.8292825215503,None,None,539.3288572191875,None,,,,,,,,,,,,,,,,,,,,,,,,,,,,,,,,,,,,,,,,,,,,,,14_CS,14,30,F,2022-12-06_13h43.56.132,dynamic target,2022.1.3,120.1052745113644,
1,7,3,2,mix,0,90,90,90,,,,,,,None,540.3529942267778,None,539.3621728168891,540.3613200312884,539.8534254303286,None,6,"[0.03351649461910711, 0.10890383214791655, 0.1251115693085012, 0.1917330790693086, 0.8832761335161194, 1.6247717700061912]","[0.10015243662928697, 0.1167838404981012, 0.13348644346660876, 0.21665949865018774, 1.274480543243044, 2.1326990840661892]",540.3529942267778,None,[0 1 1 1 2 1 0 3],space,0,0.8919887188003486,0.0024071068237390136,None,541.984960633632,None,0,542.8842010803655,None,None,543.3837635907682,None,,,,,,,,,,,,,,,,,,,,,,,,,,,,,,,,,,,,,,,,,,,,,,14_CS,14,30,F,2022-12-06_13h43.56.132,dynamic target,2022.1.3,120.1052745113644,
0,6,1,2,mix,0,91,91,91,,,,,,,None,544.3995824910508,None,543.4170798299037,544.4162267235861,543.8999992623503,None,2,"[0.07514423429893213, 0.10008540684611944]","[0.08437574265917647, 0.6002023080691288]",544.3995824910508,None,[1 1 1 3 1 3 2 1],space,0,1.9295295660758711,0.0031752232262078905,None,544.4994918244502,None,1,546.4311887972381,None,None,546.9307599669908,None,,,,,,,,,,,,,,,,,,,,,,,,,,,,,,,,,,,,,,,,,,,,,,14_CS,14,30,F,2022-12-06_13h43.56.132,dynamic target,2022.1.3,120.1052745113644,
0,5,2,2,mix,0,92,92,92,,,,,,,None,547.9632381734918,None,546.9891142351044,None,547.4636501340428,None,1,[0.008648766186524881],[0.5174609375117143],547.9632381734918,None,[0 3 2 3 3 1 0 1],space,0,1.951930662669838,0.0025905567526933737,None,547.979883047461,None,1,549.9365702624455,None,None,550.4361298863976,None,,,,,,,,,,,,,,,,,,,,,,,,,,,,,,,,,,,,,,,,,,,,,,14_CS,14,30,F,2022-12-06_13h43.56.132,dynamic target,2022.1.3,120.1052745113644,
0,4,4,2,mix,0,93,93,93,,,,,,,None,551.4686016785654,None,550.4777674400102,551.4769233137595,550.9690357685668,None,2,"[0.008629202471638564, 0.7922314086172264]","[0.341589221610775, 1.3000958622105827]",551.4686016785654,None,[1 0 1 0 1 3 0 1],space,0,2.048134756490981,0.002447196406137664,None,552.2679266982814,None,1,554.3161907071062,None,None,554.815770215492,None,,,,,,,,,,,,,,,,,,,,,,,,,,,,,,,,,,,,,,,,,,,,,,14_CS,14,30,F,2022-12-06_13h43.56.132,dynamic target,2022.1.3,120.1052745113644,
1,3,2,2,mix,0,94,94,94,,,,,,,None,555.8482272546935,None,554.8574138627209,555.8565732643528,555.3486491574604,None,1,[0.09141611479208223],[0.5914602133343578],555.8482272546935,None,[0 3 0 3 3 1 0 3],space,0,1.5285628619185445,0.0029863211129850242,None,555.9398171979174,None,1,557.4718556698044,None,None,557.9714521761732,None,,,,,,,,,,,,,,,,,,,,,,,,,,,,,,,,,,,,,,,,,,,,,,14_CS,14,30,F,2022-12-06_13h43.56.132,dynamic target,2022.1.3,120.1052745113644,
1,2,4,2,mix,0,95,95,95,,,,,,,None,559.0038935002594,None,558.0214434366444,559.0205483164445,558.5043166858923,None,2,"[0.11678287834911316, 0.13350247930065962]","[0.12516320469148923, 0.6341918597627227]",559.0038935002594,None,[0 0 1 1 1 3 0 2],space,0,1.4026440487759828,0.002532507038267795,None,559.1371134281817,None,0,560.5525839018828,None,None,561.0521550716355,None,,,,,,,,,,,,,,,,,,,,,,,,,,,,,,,,,,,,,,,,,,,,,,14_CS,14,30,F,2022-12-06_13h43.56.132,dynamic target,2022.1.3,120.1052745113644,
0,1,4,2,mix,0,96,96,96,,,,,,,None,562.0846239773546,None,561.0938147546967,562.0929472161297,561.5850478044213,None,5,"[0.00863625823694747, 0.04191510180862679, 0.2000973695776338, 0.9752111678662914, 1.191169259178423]","[0.03356652641741675, 0.09188820971758105, 0.4664801378567063, 1.0002572147604951, 1.6997495523592079]",562.0846239773546,None,[2 3 1 1 0 1 0 1],space,0,1.3680226852611668,0.0025270548539992888,None,563.2836100637032,None,1,564.6574473455403,None,None,565.1570191567268,None,,,,,,,,,,,,,,,,,,,,,,,,,,,,,,,,,,,,,,,,,,,,,,14_CS,14,30,F,2022-12-06_13h43.56.132,dynamic target,2022.1.3,120.1052745113644,
1,8,1,2,mix,0,97,97,97,,,,,,,None,566.1894851759935,None,565.1986624832371,566.197811621938,565.6899314532275,None,3,"[0.008642672570204013, 0.3582809202125645, 0.9836614104406181]","[0.34992047830382944, 0.7087315431563184, 1.4916615271813498]",566.1894851759935,None,[0 3 2 0 3 3 2 0],space,0,1.4871942612990097,0.0025309034554084064,None,567.1803200559843,None,1,568.6707218081228,None,None,569.170297467909,None,,,,,,,,,,,,,,,,,,,,,,,,,,,,,,,,,,,,,,,,,,,,,,14_CS,14,30,F,2022-12-06_13h43.56.132,dynamic target,2022.1.3,120.1052745113644,
1,7,3,2,mix,0,98,98,98,,,,,,,None,570.202758997144,None,569.2286443595385,570.2277386556889,569.703180258477,None,8,"[0.008802389465927263, 0.10851384068701009, 0.125135623056849, 0.1501390146349877, 0.4665590341537609, 0.8255683019033313, 1.1000244706810918, 1.1334854813158017]","[0.10017103819518525, 0.11680308349787083, 0.14247292429718073, 0.23340058761641558, 0.7751894874199934, 1.0839155142512027, 1.108123528510987, 1.641043971216277]",570.202758997144,None,[0 2 1 3 2 3 2 0],space,0,1.5649491292151652,0.003073876761845895,None,571.3434683005253,None,1,572.9088398171007,None,None,573.408369614405,None,,,,,,,,,,,,,,,,,,,,,,,,,,,,,,,,,,,,,,,,,,,,,,14_CS,14,30,F,2022-12-06_13h43.56.132,dynamic target,2022.1.3,120.1052745113644,
0,4,1,0,mix,0,99,99,99,,,,,,,None,574.4408442930235,None,573.4500161480828,None,573.9412642714906,None,1,[0.008738887569052167],[0.5173275193810696],574.4408442930235,None,[3 2 0 3 0 2 3 0],space,0,2.290861143166694,0.002585746004115208,None,574.4574930155923,None,1,576.747225239631,None,None,577.2468134073667,None,,,,,,,,,,,,,,,,,,,,,,,,,,,,,,,,,,,,,,,,,,,,,,14_CS,14,30,F,2022-12-06_13h43.56.132,dynamic target,2022.1.3,120.1052745113644,
0,3,3,2,mix,0,100,100,100,,,,,,,None,578.2792646736689,None,577.288437490879,578.2876023446952,577.7796836899852,None,2,"[0.008761979168411926, 0.7999828095871635]","[0.43322695161805314, 1.3002289596242917]",578.2792646736689,None,[3 0 2 2 2 0 0 0],space,0,1.3485856520455854,0.0025982539536926197,None,579.0785893726679,None,1,580.4274508445578,None,None,580.927016882845,None,,,,,,,,,,,,,,,,,,,,,,,,,,,,,,,,,,,,,,,,,,,,,,14_CS,14,30,F,2022-12-06_13h43.56.132,dynamic target,2022.1.3,120.1052745113644,
0,2,4,2,mix,0,101,101,101,,,,,,,None,581.9594845056963,None,580.9770309141986,581.9761367561496,581.4599121813626,None,1,[0.05854265707966988],[0.5588151058818767],581.9594845056963,None,[3 1 3 3 1 3 0 3],space,0,1.210029961041073,0.0029247435140860034,None,582.0177693065816,None,0,583.2334095676833,None,None,583.7329845860356,None,,,,,,,,,,,,,,,,,,,,,,,,,,,,,,,,,,,,,,,,,,,,,,14_CS,14,30,F,2022-12-06_13h43.56.132,dynamic target,2022.1.3,120.1052745113644,
0,7,3,0,mix,0,102,102,102,,,,,,,None,584.7571183864602,None,583.7663264825042,584.7654525296039,584.257540609944,None,8,"[0.7088566226539115, 1.0668030353899667, 1.0913461985601316, 1.1331346172901249, 1.1666177573752066, 1.2410342855728231, 1.4916121368150925, 1.5827453795136535]","[0.9668225028908637, 1.0751509693491244, 1.1003236993237806, 1.1583467954151274, 1.183150701230261, 1.2581910233329836, 1.574334585089673, 2.0909029681351967]",584.7571183864602,None,[0 2 0 0 2 0 0 2],space,0,1.9838871914525953,0.0024619493724458152,None,586.3474439042493,None,0,588.3291046841623,None,None,588.8286713638815,None,,,,,,,,,,,,,,,,,,,,,,,,,,,,,,,,,,,,,,,,,,,,,,14_CS,14,30,F,2022-12-06_13h43.56.132,dynamic target,2022.1.3,120.1052745113644,
1,6,4,2,mix,0,103,103,103,,,,,,,None,589.8611386660159,None,588.8786485128203,589.8777966893686,589.3615596066338,None,1,[1.4079939269086026],[1.9163971844918706],589.8611386660159,None,[1 1 0 2 3 2 1 3],space,0,2.3020923199055687,0.0023676586752117146,None,591.2766094604358,None,1,593.5913216637364,None,None,594.0909172079562,None,,,,,,,,,,,,,,,,,,,,,,,,,,,,,,,,,,,,,,,,,,,,,,14_CS,14,30,F,2022-12-06_13h43.56.132,dynamic target,2022.1.3,120.1052745113644,
1,5,1,2,mix,0,104,104,104,,,,,,,None,595.1233543627241,None,594.1492313864856,595.148334021269,594.6237785105077,None,3,"[0.24178315897552238, 0.37491072050033836, 0.6336392649554909]","[0.2833364923917543, 0.49212367989093764, 1.14176029187729]",595.1233543627241,None,[3 1 2 3 1 2 1 0],space,0,1.3658726007688529,0.00263609851936053,None,595.7645080190377,None,1,597.1299912732993,None,None,597.6295646880687,None,,,,,,,,,,,,,,,,,,,,,,,,,,,,,,,,,,,,,,,,,,,,,,14_CS,14,30,F,2022-12-06_13h43.56.132,dynamic target,2022.1.3,120.1052745113644,
0,8,3,0,mix,0,105,105,105,,,,,,,None,598.6537071478433,None,597.6628751543049,598.6620483467523,598.1541235984278,None,5,"[0.8584019907520997, 0.9004206840436382, 0.9165469591735018, 0.9338518680306152, 0.9665213499483798]","[0.8665138772503269, 0.908388889476555, 0.9248564071331202, 0.9583661667020351, 1.4749319840138924]",598.6537071478433,None,[1 2 0 2 3 0 0 3],space,0,2.4789014906036755,0.002724295600273763,None,599.6278801558801,None,1,602.1091203158921,None,None,602.608699503561,None,,,,,,,,,,,,,,,,,,,,,,,,,,,,,,,,,,,,,,,,,,,,,,14_CS,14,30,F,2022-12-06_13h43.56.132,dynamic target,2022.1.3,120.1052745113644,
1,7,2,2,mix,0,106,106,106,,,,,,,None,603.6328249653543,None,602.6419984239983,603.6411523734478,603.133248792421,None,10,"[0.24995117088838015, 0.30832897960499395, 0.3248757142773684, 0.3581885538151255, 0.6998688589574158, 0.733478682124769, 0.7588236369465449, 0.8086261235912389, 0.8587015401135432, 0.8752123545200448]","[0.25830167058120423, 0.3174094304176833, 0.34986403217226325, 0.3748212405516824, 0.7253417797273869, 0.7417419468856679, 0.7670070432595821, 0.8252382844621025, 0.866901302975748, 1.3828859817003831]",603.6328249653543,None,[0 3 3 3 0 0 3 2],space,0,1.9273445234684914,0.0031373786587209906,None,604.5154147652174,None,1,606.447116228037,None,None,606.9466857942068,None,,,,,,,,,,,,,,,,,,,,,,,,,,,,,,,,,,,,,,,,,,,,,,14_CS,14,30,F,2022-12-06_13h43.56.132,dynamic target,2022.1.3,120.1052745113644,
0,6,1,2,mix,0,107,107,107,,,,,,,None,607.979180036542,None,606.9883230271025,607.9874814665855,607.479574678393,None,4,"[0.008673782087498694, 0.5081633615209284, 0.542382867059132, 0.5670049265281705]","[0.46654107402355294, 0.5334743203784456, 0.5506749963205948, 1.0749190912047197]",607.979180036542,None,[2 2 0 0 0 2 1 3],space,0,1.585618676559534,0.002967719545267755,None,608.553667603479,None,1,610.1439908762513,None,None,610.6435630081548,None,,,,,,,,,,,,,,,,,,,,,,,,,,,,,,,,,,,,,,,,,,,,,,14_CS,14,30,F,2022-12-06_13h43.56.132,dynamic target,2022.1.3,120.1052745113644,
1,5,3,2,mix,0,108,108,108,,,,,,,None,611.6677138065625,None,610.6768721915232,611.6760261409727,611.1681232013798,None,7,"[0.008661274136102293, 0.5175209115277539, 0.5504976400061423, 0.5672188445405482, 0.6088764108717442, 0.850552771200455, 0.908560793606739]","[0.5080860688049142, 0.5334739996596909, 0.5591518583769357, 0.5752996215214807, 0.6670868054916355, 0.8750475061551697, 1.4162084427371155]",611.6677138065625,None,[2 3 1 0 0 1 1 0],space,0,1.9713667337400693,0.0030623309630755102,None,612.5835959200977,None,1,614.5569241604517,None,None,615.0565030274036,None,,,,,,,,,,,,,,,,,,,,,,,,,,,,,,,,,,,,,,,,,,,,,,14_CS,14,30,F,2022-12-06_13h43.56.132,dynamic target,2022.1.3,120.1052745113644,
1,4,4,2,mix,0,109,109,109,,,,,,,None,616.0806336206624,None,615.0898266430231,616.0889613494728,615.5810571270122,None,3,"[0.050299597467528656, 0.0752093397823046, 0.09186287310149055]","[0.0668800073890452, 0.08352680565803894, 0.6006327098275506]",616.0806336206624,None,[0 0 3 2 3 3 0 0],space,0,1.9105610999013152,0.0028599587494682055,None,616.1805522548457,None,1,618.0956155787462,None,None,618.5951790512997,None,,,,,,,,,,,,,,,,,,,,,,,,,,,,,,,,,,,,,,,,,,,,,,14_CS,14,30,F,2022-12-06_13h43.56.132,dynamic target,2022.1.3,120.1052745113644,
0,5,2,1,mix,0,110,110,110,,,,,,,None,619.6276376940841,None,618.6368156427616,619.6359647814606,619.1280637661694,None,3,"[0.009407261090018437, 0.45807832349782984, 0.5672910057892295]","[0.05912700283624872, 0.5587705262678355, 1.0747356412739464]",619.6276376940841,None,[1 2 1 0 3 0 3 2],space,0,4.143666628189749,0.0030116577308945125,None,620.2021522012219,None,1,624.3486472331606,None,None,624.8482151957476,None,,,,,,,,,,,,,,,,,,,,,,,,,,,,,,,,,,,,,,,,,,,,,,14_CS,14,30,F,2022-12-06_13h43.56.132,dynamic target,2022.1.3,120.1052745113644,
0,2,2,0,mix,0,111,111,111,,,,,,,None,625.8806866671985,None,624.9065704260101,625.905669212194,625.3811072870994,None,3,"[0.3666080075890932, 0.4331968042497465, 0.8253383480587217]","[0.42536201694747433, 0.45825247264474456, 1.3332807358001446]",625.8806866671985,None,[0 0 0 0 0 0 2 1],space,0,2.03206364462676,0.0027034490176447434,None,626.7133133013704,None,1,628.7449276254738,None,None,629.2444981537944,None,,,,,,,,,,,,,,,,,,,,,,,,,,,,,,,,,,,,,,,,,,,,,,14_CS,14,30,F,2022-12-06_13h43.56.132,dynamic target,2022.1.3,120.1052745113644,
1,1,4,2,mix,0,112,112,112,,,,,,,None,630.276964493778,None,629.2861430838893,None,629.7773886415616,None,1,[0.008987122264443315],[0.5172778082996956],630.276964493778,None,[2 0 1 0 2 1 3 0],space,0,1.6995487802123534,0.0026845267366297776,None,630.2936228378476,None,0,631.9921943979134,None,None,632.4917694162657,None,,,,,,,,,,,,,,,,,,,,,,,,,,,,,,,,,,,,,,,,,,,,,,14_CS,14,30,F,2022-12-06_13h43.56.132,dynamic target,2022.1.3,120.1052745113644,
0,2,3,1,mix,0,113,113,113,,,,,,,None,633.524220041134,None,632.5500922541469,633.5492048311462,633.0246425853347,None,1,[0.10020343057840364],[0.6005663214800734],633.524220041134,None,[3 0 1 2 1 1 3 0],space,0,2.017214142524608,0.002441744223688147,None,633.6241364303005,None,1,635.647425591329,None,None,636.1470050997148,None,,,,,,,,,,,,,,,,,,,,,,,,,,,,,,,,,,,,,,,,,,,,,,14_CS,14,30,F,2022-12-06_13h43.56.132,dynamic target,2022.1.3,120.1052745113644,
1,1,1,2,mix,0,114,114,114,,,,,,,None,637.1711290862102,None,636.1803107552005,None,636.6715566335897,None,1,[0.008722210301129962],[0.5088570716579852],637.1711290862102,None,[3 2 0 0 3 0 1 2],space,0,1.7252125273953425,0.0025424492541787913,None,637.1794631010671,None,0,638.9113439727862,None,None,639.410904879606,None,,,,,,,,,,,,,,,,,,,,,,,,,,,,,,,,,,,,,,,,,,,,,,14_CS,14,30,F,2022-12-06_13h43.56.132,dynamic target,2022.1.3,120.1052745113644,
0,8,3,2,mix,0,115,115,115,,,,,,,None,640.4350415664812,None,639.444215987276,640.4433686538578,639.935481429382,None,4,"[0.008642031136332662, 0.10847439253848279, 0.6000733799719455, 0.617727869988812]","[0.0669293977534835, 0.5923027360004198, 0.6092109183482535, 1.1248963684283808]",640.4350415664812,None,[1 0 2 3 1 1 1 0],space,0,2.9018167601498135,0.002716919118029182,None,641.0595243707776,None,1,643.9653898615688,None,None,644.4649607106046,None,,,,,,,,,,,,,,,,,,,,,,,,,,,,,,,,,,,,,,,,,,,,,,14_CS,14,30,F,2022-12-06_13h43.56.132,dynamic target,2022.1.3,120.1052745113644,
1,1,1,1,mix,0,116,116,116,,,,,,,None,645.489103811813,None,644.5066611246821,645.505724311317,644.9895250731461,None,8,"[0.05846889224812912, 0.7920562973195047, 1.0247490632664267, 1.0747327548251633, 1.1164060362734745, 1.150018425172675, 1.1664099329809687, 1.1834104817262414]","[0.10050682853943727, 1.0165781649047858, 1.033582241534532, 1.083560480909, 1.1246503787515394, 1.1582416003511753, 1.1746725563079963, 1.6912704452861362]",645.489103811813,None,[2 2 2 3 1 0 3 3],space,0,4.016805870216558,0.0026713773531810148,None,646.6797669801017,None,1,650.7013633985953,None,None,651.2009310404653,None,,,,,,,,,,,,,,,,,,,,,,,,,,,,,,,,,,,,,,,,,,,,,,14_CS,14,30,F,2022-12-06_13h43.56.132,dynamic target,2022.1.3,120.1052745113644,
1,8,2,2,mix,0,117,117,117,,,,,,,None,652.2333993047505,None,651.24258655421,652.2417260714101,651.733826018266,None,6,"[0.008589112887420924, 0.15906103141787753, 0.2089860318283172, 0.22502507202443667, 0.25008074041943473, 0.333333974765992]","[0.14173303096140444, 0.18338450367627956, 0.21662967200063576, 0.24166353166219778, 0.2589774205844151, 0.8420383852935629]",652.2333993047505,None,[1 2 0 3 3 3 1 1],space,0,1.5779275703207531,0.002675225952771143,None,652.5747816641142,None,1,654.1567839431264,None,None,654.6563480571137,None,,,,,,,,,,,,,,,,,,,,,,,,,,,,,,,,,,,,,,,,,,,,,,14_CS,14,30,F,2022-12-06_13h43.56.132,dynamic target,2022.1.3,120.1052745113644,
1,7,1,2,mix,0,118,118,118,,,,,,,None,655.6888115106485,None,654.7146952694602,655.7137902070444,655.1892337341324,None,3,"[1.0332958415565372, 1.3998457994312048, 1.4247770297606621]","[1.1748916057877068, 1.4084005956356123, 1.9323554040929594]",655.6888115106485,None,[3 1 0 0 2 3 2 0],space,0,1.3036920546073816,0.0031158906440396095,None,657.120933593369,None,1,658.4281625148287,None,None,658.9277343260153,None,,,,,,,,,,,,,,,,,,,,,,,,,,,,,,,,,,,,,,,,,,,,,,14_CS,14,30,F,2022-12-06_13h43.56.132,dynamic target,2022.1.3,120.1052745113644,
1,6,1,2,mix,0,119,119,119,,,,,,,None,659.9602122117994,None,658.9860760861775,659.985167816596,659.4606241723504,None,23,"[0.933503249021669, 0.9586220985966065, 0.991967330519401, 1.0165993322043505, 1.6159001057403657, 1.6332807037306338, 1.6745809917010774, 1.69952793714765, 1.7244280579616316, 1.7411152665299596, 1.7576433996364358, 2.240787013028239, 2.324838190426817, 2.3653604197807, 2.424219944919969, 2.465549418107912, 2.4822420788605086, 2.498710558666062, 2.524281618734676, 2.5740180377470097, 2.948358524023206, 2.9899163474747183, 3.03993660073138]","[0.9502549216376792, 0.9748192521092278, 1.0085964893714845, 1.3581067710674688, 1.6244625991457724, 1.6412720007629105, 1.6830447043757886, 1.70773347290924, 1.733000814299885, 1.7494333738413843, 2.232440361935005, 2.2652224154007854, 2.3486773805288976, 2.398831051916204, 2.4323401700512477, 2.474084971314369, 2.4904764791226626, 2.5154519683510443, 2.5322183939351817, 2.9399765940979705, 2.9655229589843657, 3.0318667281171656, 3.5476855963261187]",659.9602122117994,None,[3 0 3 0 2 0 1 1],space,0,2.3605666643361474,0.003049181577807758,None,663.0076449230382,None,1,665.3722907860974,None,space,665.8802100822413,None,14.004330312835009,,,,,,,,,,,,,,,,,,,,,,,,,,,,,,,,,,,,,,,,,,,,,14_CS,14,30,F,2022-12-06_13h43.56.132,dynamic target,2022.1.3,120.1052745113644,
0,5,2,2,mix,0,120,120,120,,,,,,,None,680.9258111806303,None,679.9433665691995,None,680.4262289140806,None,1,[0.008748829784963164],[0.5171107149199088],680.9258111806303,None,[2 2 3 1 1 2 3 2],space,0,2.1693008694419404,0.0028795224643545225,None,680.942459261767,None,1,683.1156212426031,None,None,683.6151956195233,None,,,,,,,,,,,,,,,,,,,,,,,,,,,,,,,,,,,,,,,,,,,,,,14_CS,14,30,F,2022-12-06_13h43.56.132,dynamic target,2022.1.3,120.1052745113644,
1,4,3,2,mix,0,121,121,121,,,,,,,None,684.6476584316242,None,683.6735444354526,None,684.1480793722421,None,1,[0.007933568032967742],[0.5168823646563396],684.6476584316242,None,[0 2 2 3 0 1 2 1],space,0,1.8874204306866886,0.002518395505830995,None,684.6642997777108,None,1,686.5543850466493,None,None,687.0539514056516,None,,,,,,,,,,,,,,,,,,,,,,,,,,,,,,,,,,,,,,,,,,,,,,14_CS,14,30,F,2022-12-06_13h43.56.132,dynamic target,2022.1.3,120.1052745113644,
0,3,3,2,mix,0,122,122,122,,,,,,,None,688.0864199906537,None,687.1122950901154,None,687.58683900697,None,1,[0.008924903231672943],[0.5176562539581937],688.0864199906537,None,[3 1 1 1 2 3 1 0],space,0,1.9359086204567575,0.0024378956240980187,None,688.1030741654067,None,1,690.0430975841373,None,None,690.5426562459404,None,,,,,,,,,,,,,,,,,,,,,,,,,,,,,,,,,,,,,,,,,,,,,,14_CS,14,30,F,2022-12-06_13h43.56.132,dynamic target,2022.1.3,120.1052745113644,
0,4,2,1,mix,0,123,123,123,,,,,,,None,691.5668086479309,None,690.5759872380422,None,691.0672295885488,None,1,[0.008661274136102293],[0.516874026023288],691.5668086479309,None,[1 3 2 1 3 1 1 2],space,0,3.448393638980633,0.003338468004585593,None,691.5834676334343,None,1,695.030550186224,None,None,695.5301184695261,None,,,,,,,,,,,,,,,,,,,,,,,,,,,,,,,,,,,,,,,,,,,,,,14_CS,14,30,F,2022-12-06_13h43.56.132,dynamic target,2022.1.3,120.1052745113644,
0,3,2,2,mix,0,124,124,124,,,,,,,None,696.5625835266437,None,695.5717739832708,None,696.0630063915614,None,1,[0.009143631994447787],[0.5172877505156066],696.5625835266437,None,[0 1 0 0 3 3 3 3],space,0,2.88371005963927,0.002847130081136129,None,696.5792421914302,None,1,699.4684724297513,None,None,699.9680352608709,None,,,,,,,,,,,,,,,,,,,,,,,,,,,,,,,,,,,,,,,,,,,,,,14_CS,14,30,F,2022-12-06_13h43.56.132,dynamic target,2022.1.3,120.1052745113644,
1,2,2,2,mix,0,125,125,125,,,,,,,None,700.992171627031,None,700.0097327884996,None,700.492593209081,None,1,[0.008639144685730571],[0.5176228994259873],700.992171627031,None,[3 0 2 3 3 0 1 3],space,0,1.7653611218393053,0.0024516864395991433,None,701.0088206703167,None,1,702.7739964214434,None,None,703.2735704776449,None,,,,,,,,,,,,,,,,,,,,,,,,,,,,,,,,,,,,,,,,,,,,,,14_CS,14,30,F,2022-12-06_13h43.56.132,dynamic target,2022.1.3,120.1052745113644,
0,1,2,2,mix,0,126,126,126,,,,,,,None,704.2977090888216,None,703.3068825474638,704.3060448355463,703.7981325951714,None,2,"[0.00866736775424215, 0.5836491590653168]","[0.34996505791968957, 1.091360630811323]",704.2977090888216,None,[3 1 2 3 2 1 3 0],space,0,1.8705840888706007,0.0033525795388413826,None,704.8888851471929,None,1,706.7623050162965,None,None,707.2618668852672,None,,,,,,,,,,,,,,,,,,,,,,,,,,,,,,,,,,,,,,,,,,,,,,14_CS,14,30,F,2022-12-06_13h43.56.132,dynamic target,2022.1.3,120.1052745113644,
1,8,4,2,mix,0,127,127,127,,,,,,,None,708.294330338802,None,707.303503476729,None,707.7947509587011,None,1,[0.009447029955481412],[0.5176344452247577],708.294330338802,None,[2 3 0 3 2 3 1 1],space,0,2.255054410872617,0.0023089675269147847,None,708.3109967007877,None,1,710.5674087088028,None,None,711.0669798785573,None,,,,,,,,,,,,,,,,,,,,,,,,,,,,,,,,,,,,,,,,,,,,,,14_CS,14,30,F,2022-12-06_13h43.56.132,dynamic target,2022.1.3,120.1052745113644,
0,7,1,2,mix,0,128,128,128,,,,,,,None,712.0994458978239,None,711.1253296566374,712.1244287635363,711.5915529004487,None,7,"[0.07518721033375186, 0.10016077526233857, 0.5422045485975104, 1.50847766384868, 1.5247790502744465, 1.5493934125443047, 1.5664314851401286]","[0.09183272573682189, 0.32500688739128236, 0.749922466748103, 1.5164176462167234, 1.5409669030032092, 1.558416455074621, 2.074034554654645]",712.0994458978239,None,[0 2 1 3 1 3 1 2],space,0,1.8134801667329157,0.0028727874159812927,None,713.6647885499005,None,1,715.4799200902362,None,None,715.9795024850725,None,,,,,,,,,,,,,,,,,,,,,,,,,,,,,,,,,,,,,,,,,,,,,,14_CS,14,30,F,2022-12-06_13h43.56.132,dynamic target,2022.1.3,120.1052745113644,
1,6,2,2,mix,0,129,129,129,,,,,,,None,717.0119582414063,None,716.0378397552031,None,716.512380144175,None,1,[0.008669933486089576],[0.5176007699756155],717.0119582414063,None,[3 0 2 3 1 3 0 0],space,0,1.8092438203602796,0.0025908774696290493,None,717.0286146611761,None,1,718.8354175105524,None,None,719.3349963775042,None,,,,,,,,,,,,,,,,,,,,,,,,,,,,,,,,,,,,,,,,,,,,,,14_CS,14,30,F,2022-12-06_13h43.56.132,dynamic target,2022.1.3,120.1052745113644,
0,5,2,2,mix,0,130,130,130,,,,,,,None,720.3674553410056,None,719.3933439105676,720.3924455832021,719.859522254048,None,7,"[0.440950770955169, 0.8166344186065544, 0.8744868934336409, 0.9662381571361038, 1.007930360867249, 1.1911442432810873, 1.423957598692141]","[0.46589098135154927, 0.8327773710025212, 0.9497481893140503, 0.9744039240322309, 1.0160669425476954, 1.2324538320353895, 1.9323881171912944]",720.3674553410056,None,[1 1 3 3 2 2 3 2],space,0,2.4862523164647428,0.0026511722044233466,None,721.7912525813681,None,1,724.2808130937065,None,None,724.7803926020922,None,,,,,,,,,,,,,,,,,,,,,,,,,,,,,,,,,,,,,,,,,,,,,,14_CS,14,30,F,2022-12-06_13h43.56.132,dynamic target,2022.1.3,120.1052745113644,
1,7,3,0,mix,0,131,131,131,,,,,,,None,725.804524478217,None,724.8136992197269,725.8128480377109,725.3049476638516,None,2,"[0.00902977758050838, 0.6171900281497074]","[0.4831243703938526, 1.124770006064864]",725.804524478217,None,[3 1 1 2 3 2 0 3],space,0,2.760703674493925,0.002942703646112932,None,726.4289986231634,None,1,729.1933254372889,None,None,729.6929084735573,None,,,,,,,,,,,,,,,,,,,,,,,,,,,,,,,,,,,,,,,,,,,,,,14_CS,14,30,F,2022-12-06_13h43.56.132,dynamic target,2022.1.3,120.1052745113644,
0,8,1,1,mix,0,132,132,132,,,,,,,None,730.7253619848761,None,729.7512377257717,None,730.2257845290769,None,1,[0.009035871195010259],[0.5172470194993366],730.7253619848761,None,[1 0 1 3 1 2 2 3],space,0,2.799477035896416,0.002785231767120422,None,730.7420174424951,None,1,733.539651643976,None,None,734.0392311523635,None,,,,,,,,,,,,,,,,,,,,,,,,,,,,,,,,,,,,,,,,,,,,,,14_CS,14,30,F,2022-12-06_13h43.56.132,dynamic target,2022.1.3,120.1052745113644,
1,7,4,2,mix,0,133,133,133,,,,,,,None,735.0633604627546,None,734.0725374492813,735.0716888329971,734.5554668239456,None,5,"[0.008687252187883132, 0.7256227275229321, 1.0171092716955172, 1.0505308341817, 1.1002351815277507]","[0.05850160534828319, 0.7500331139963237, 1.0250720249441656, 1.058701411828224, 1.6081769278371212]",735.0633604627546,None,[3 1 3 1 2 2 0 1],space,0,2.3704222873147955,0.0022278262113104574,None,736.162435612121,None,1,738.5354262019737,None,None,739.03500859681,None,,,,,,,,,,,,,,,,,,,,,,,,,,,,,,,,,,,,,,,,,,,,,,14_CS,14,30,F,2022-12-06_13h43.56.132,dynamic target,2022.1.3,120.1052745113644,
0,6,3,2,mix,0,134,134,134,,,,,,,None,740.0674819925607,None,739.0766426225382,740.0757914405203,739.5678865766276,None,1,[0.3582562250303454],[0.8585726120163599],740.0674819925607,None,[3 3 0 2 1 3 3 3],space,0,2.043202775683312,0.0026001782516686944,None,740.4255198095452,None,1,742.4737629717856,None,None,742.9733501773724,None,,,,,,,,,,,,,,,,,,,,,,,,,,,,,,,,,,,,,,,,,,,,,,14_CS,14,30,F,2022-12-06_13h43.56.132,dynamic target,2022.1.3,120.1052745113644,
1,5,4,2,mix,0,135,135,135,,,,,,,None,744.0058011229557,None,743.0316778260021,744.0307785364857,743.5062230257245,None,2,"[0.008075645515418728, 0.4826388053697883]","[0.17447499484478612, 0.9914875383947219]",744.0058011229557,None,[1 2 1 2 1 3 1 2],space,0,2.5795584145398607,0.0026822817180800484,None,744.4970588678625,None,1,747.078206116259,None,None,747.5777724752613,None,,,,,,,,,,,,,,,,,,,,,,,,,,,,,,,,,,,,,,,,,,,,,,14_CS,14,30,F,2022-12-06_13h43.56.132,dynamic target,2022.1.3,120.1052745113644,
1,6,1,1,mix,0,136,136,136,,,,,,,None,748.610237532379,None,747.6194247818403,748.6185652611894,748.1106703395126,None,1,[0.18340438810992055],[0.6915712775135034],748.610237532379,None,[1 2 2 1 2 0 0 1],space,0,2.7716429990705365,0.0035068442521151155,None,748.8017457890692,None,1,751.5744045013216,None,None,752.0739724639086,None,,,,,,,,,,,,,,,,,,,,,,,,,,,,,,,,,,,,,,,,,,,,,,14_CS,14,30,F,2022-12-06_13h43.56.132,dynamic target,2022.1.3,120.1052745113644,
0,1,2,0,mix,0,137,137,137,,,,,,,None,753.1064404074768,None,752.1239935510293,753.1230907336285,752.6068709695937,None,5,"[0.18340438810992055, 0.5081296862717863, 0.5588821356650442, 0.583837740461604, 0.7088344932053587]","[0.49163971844973275, 0.5505313152552844, 0.5752781335049804, 0.5928508407741901, 1.216303503155359]",753.1064404074768,None,[0 3 3 1 0 1 1 1],space,0,3.0309571721481916,0.003082536110014189,None,753.8224996848949,None,1,756.8532788628145,None,None,757.3528400903513,None,,,,,,,,,,,,,,,,,,,,,,,,,,,,,,,,,,,,,,,,,,,,,,14_CS,14,30,F,2022-12-06_13h43.56.132,dynamic target,2022.1.3,120.1052745113644,
1,8,4,2,mix,0,138,138,138,,,,,,,None,758.3769876815932,None,757.3945456358961,None,757.877402207876,None,1,[0.009510211137239821],[0.51750198924492],758.3769876815932,None,[0 0 3 3 1 2 3 3],space,0,3.530410510600632,0.0027005625706806313,None,758.3936357627299,None,1,761.9239811713651,None,None,762.4235536239855,None,,,,,,,,,,,,,,,,,,,,,,,,,,,,,,,,,,,,,,,,,,,,,,14_CS,14,30,F,2022-12-06_13h43.56.132,dynamic target,2022.1.3,120.1052745113644,
1,7,1,2,mix,0,139,139,139,,,,,,,None,763.456019322537,None,762.4818896112483,763.480997698216,762.9564434703207,None,6,"[0.65874560658267, 0.8748672633919341, 1.0581805679685203, 1.1163316300062434, 1.1499744869888673, 1.1662322559495806]","[0.67523814013839, 0.8919268240024394, 1.0662991895169398, 1.1249675675262552, 1.158213056567547, 1.6748035690634424]",763.456019322537,None,[0 2 3 2 2 3 0 2],space,0,2.1417930014595186,0.00249498318953556,None,764.6300433897559,None,1,766.7698950967861,None,None,767.26945472074,None,,,,,,,,,,,,,,,,,,,,,,,,,,,,,,,,,,,,,,,,,,,,,,14_CS,14,30,F,2022-12-06_13h43.56.132,dynamic target,2022.1.3,120.1052745113644,
0,6,2,2,mix,0,140,140,140,,,,,,,None,768.3019220228744,None,767.3110951608014,768.3102574488839,767.8023432842092,None,3,"[0.008729266068257857, 0.29998264922869566, 0.4498525825874822]","[0.03359442876717367, 0.32490586164203705, 0.9502475451536156]",768.3019220228744,None,[3 3 2 2 2 1 3 0],space,0,1.6856896511562809,0.0027589330002228962,None,768.7515491416489,None,0,770.4501152495304,None,None,770.9496764770672,None,,,,,,,,,,,,,,,,,,,,,,,,,,,,,,,,,,,,,,,,,,,,,,14_CS,14,30,F,2022-12-06_13h43.56.132,dynamic target,2022.1.3,120.1052745113644,
0,7,3,1,mix,0,141,141,141,,,,,,,None,771.9738227854432,None,770.9913175585625,None,771.474245329644,None,1,[0.008580132820497965],[0.516854141589647],771.9738227854432,None,[1 0 2 1 3 0 0 0],space,0,3.3735268245909538,0.002912235566327581,None,771.9904683008463,None,1,775.3709437761245,None,None,775.8705152665941,None,,,,,,,,,,,,,,,,,,,,,,,,,,,,,,,,,,,,,,,,,,,,,,14_CS,14,30,F,2022-12-06_13h43.56.132,dynamic target,2022.1.3,120.1052745113644,
1,6,4,2,mix,0,142,142,142,,,,,,,None,776.8946541984842,None,775.9038343921784,776.9029844930283,776.3950773841188,None,3,"[0.008611563054728322, 0.7500507534114149, 0.8092746126785642]","[0.1917693200521171, 0.7917006225434307, 1.3165293838992511]",776.8946541984842,None,[2 3 3 2 0 3 1 1],space,0,1.74866910252058,0.0026835645840037614,None,777.710634355104,None,1,779.459153365744,None,None,779.9587264597965,None,,,,,,,,,,,,,,,,,,,,,,,,,,,,,,,,,,,,,,,,,,,,,,14_CS,14,30,F,2022-12-06_13h43.56.132,dynamic target,2022.1.3,120.1052745113644,
1,5,4,2,mix,0,143,143,143,,,,,,,None,780.9828698817219,None,779.9920356431667,780.9911879890315,780.4833036510063,None,5,"[0.008640748270408949, 0.2833743369592412, 0.3166265610489063, 0.525567371825673, 0.5756469576663221]","[0.2759221646319929, 0.29169180283497553, 0.3258308084914461, 0.5423017257435276, 1.0834645866270876]",780.9828698817219,None,[3 3 0 1 3 1 2 0],space,0,1.9100094672448904,0.0025645787027315237,None,781.5657085897856,None,1,783.4807610093194,None,None,783.980324161156,None,,,,,,,,,,,,,,,,,,,,,,,,,,,,,,,,,,,,,,,,,,,,,,14_CS,14,30,F,2022-12-06_13h43.56.132,dynamic target,2022.1.3,120.1052745113644,
0,4,3,2,mix,0,144,144,144,,,,,,,None,785.0044727145487,None,784.0136471353417,785.0127882561246,784.5049119360156,None,4,"[0.008652935503050685, 0.20006177002869663, 0.5672884400573821, 0.5919653420751274]","[0.1917513599182712, 0.20908128467635834, 0.5835965615333407, 1.1003573745747417]",785.0044727145487,None,[2 3 3 1 3 0 0 2],space,0,1.9193686208363943,0.0025212819546140963,None,785.6039566172985,None,1,787.5273303513095,None,None,788.0269105011291,None,,,,,,,,,,,,,,,,,,,,,,,,,,,,,,,,,,,,,,,,,,,,,,14_CS,14,30,F,2022-12-06_13h43.56.132,dynamic target,2022.1.3,120.1052745113644,
1,3,2,2,mix,0,145,145,145,,,,,,,None,789.0510401322372,None,788.0602190430636,None,788.5514697322033,None,1,[0.008643314004075364],[0.517604297860089],789.0510401322372,None,[2 2 3 2 2 0 2 3],space,0,1.6394192170955648,0.002507811854229658,None,789.0676997591727,None,1,790.7079746518375,None,None,791.2075455008733,None,,,,,,,,,,,,,,,,,,,,,,,,,,,,,,,,,,,,,,,,,,,,,,14_CS,14,30,F,2022-12-06_13h43.56.132,dynamic target,2022.1.3,120.1052745113644,
1,1,4,0,mix,0,146,146,146,,,,,,,None,792.2400121615756,None,791.2491885066684,792.2483379660844,791.7404356679253,None,8,"[0.009302386741183, 0.02521121597419551, 0.8921327241005201, 0.9086682336874219, 0.9339859275951312, 1.3997948054802691, 1.4580292538485082, 1.5160914773714467]","[0.01689727798111562, 0.49191810050979257, 0.9003093953615462, 0.9248820644661464, 1.1834909816079744, 1.4414854056285549, 1.4997756586963078, 2.0243420738243003]",792.2400121615756,None,[3 0 3 0 1 0 0 1],space,0,2.143607937041452,0.0029228192142909393,None,793.7637530520187,None,1,795.903577498133,None,None,796.403162458703,None,,,,,,,,,,,,,,,,,,,,,,,,,,,,,,,,,,,,,,,,,,,,,,14_CS,14,30,F,2022-12-06_13h43.56.132,dynamic target,2022.1.3,120.1052745113644,
1,2,2,1,mix,0,147,147,147,,,,,,,None,797.4356178943217,None,796.461496521666,797.4605997978833,796.9360394763717,None,5,"[0.26663068225752795, 0.8915474161931343, 0.9085874130887532, 1.1999289933301043, 1.283427255206334]","[0.2749308294332877, 0.9003283176443801, 0.9168949367485766, 1.2663003440957254, 1.7911493106021226]",797.4356178943217,None,[2 1 1 3 0 2 3 2],space,0,2.892483905325207,0.0026476443199499045,None,798.726204507544,None,1,801.6237294408584,None,None,802.1233147221453,None,,,,,,,,,,,,,,,,,,,,,,,,,,,,,,,,,,,,,,,,,,,,,,14_CS,14,30,F,2022-12-06_13h43.56.132,dynamic target,2022.1.3,120.1052745113644,
1,1,3,2,mix,0,148,148,148,,,,,,,None,803.1474687277187,None,802.1566338477296,803.1557810621289,802.6395507144443,None,5,"[0.008660953419166617, 0.1251680154400674, 0.166833920404315, 0.7920495622693124, 0.8166873368554661]","[0.11682842011396133, 0.1418728634253057, 0.49148641588544706, 0.8083814167785022, 1.3169052638259018]",803.1474687277187,None,[1 1 1 2 3 3 1 2],space,0,2.5269663343806315,0.002448799990816042,None,803.9551092890124,None,1,806.4862988238983,None,None,806.9858754458353,None,,,,,,,,,,,,,,,,,,,,,,,,,,,,,,,,,,,,,,,,,,,,,,14_CS,14,30,F,2022-12-06_13h43.56.132,dynamic target,2022.1.3,120.1052745113644,
0,8,1,2,mix,0,149,149,149,,,,,,,None,808.0183353714874,None,807.0275104337143,808.0266618174301,807.5187585571202,None,6,"[0.008681158569743275, 0.46662125318835024, 0.8416153600192047, 0.858919306725511, 1.1830487133338465, 1.2082727579745551]","[0.2916222073199606, 0.8334175214567949, 0.8502852935052942, 0.8669009822588123, 1.1913398804426834, 1.716161586033195]",808.0183353714874,None,[1 0 2 0 1 1 1 2],space,0,2.2730110159864125,0.00290197263166192,None,809.2339740290063,None,1,811.507052078292,None,None,812.0066347938434,None,,,,,,,,,,,,,,,,,,,,,,,,,,,,,,,,,,,,,,,,,,,,,,14_CS,14,30,F,2022-12-06_13h43.56.132,dynamic target,2022.1.3,120.1052745113644,
1,7,3,2,mix,0,150,150,150,,,,,,,None,813.0390895880282,None,812.0649383887248,813.0640676429921,812.539511811512,None,2,"[0.008634333937152405, 0.22502218557383458]","[0.025334371171993553, 0.7340476334793493]",813.0390895880282,None,[2 2 0 0 0 0 1 2],space,0,1.9296639463591418,0.002444951389406924,None,813.2722271879848,None,1,815.2039267265045,None,None,815.7035014241417,None,,,,,,,,,,,,,,,,,,,,,,,,,,,,,,,,,,,,,,,,,,,,,,14_CS,14,30,F,2022-12-06_13h43.56.132,dynamic target,2022.1.3,120.1052745113644,
1,6,2,2,mix,0,151,151,151,,,,,,,None,816.7359728955926,None,815.7618361285386,816.7609422912046,816.2363845354266,None,7,"[0.38322305491055886, 1.4413455731646536, 1.4576036628404836, 1.4831455376934173, 2.0489057628619776, 2.0907082931244076, 2.1159958396638103]","[0.7842747489830799, 1.4495097364779213, 1.4749108167143277, 1.516510333331098, 2.057585638565797, 2.0988721357207396, 2.6237679268597276]",816.7359728955926,None,[3 3 1 0 1 3 0 1],space,0,1.8314589012916258,0.002660152269527316,None,818.8591688242868,None,1,820.6909664058912,None,None,821.190527954145,None,,,,,,,,,,,,,,,,,,,,,,,,,,,,,,,,,,,,,,,,,,,,,,14_CS,14,30,F,2022-12-06_13h43.56.132,dynamic target,2022.1.3,120.1052745113644,
1,7,1,1,mix,0,152,152,152,,,,,,,None,822.2146639995863,None,821.2322258024888,None,821.715086543787,None,1,[0.008634333937152405],[0.5176543296583986],822.2146639995863,None,[0 1 0 1 3 3 0 1],space,0,2.6822704908390733,0.0024603457895864267,None,822.231320740073,None,1,824.9123830947683,None,None,825.4119709417871,None,,,,,,,,,,,,,,,,,,,,,,,,,,,,,,,,,,,,,,,,,,,,,,14_CS,14,30,F,2022-12-06_13h43.56.132,dynamic target,2022.1.3,120.1052745113644,
0,6,1,2,mix,0,153,153,153,,,,,,,None,826.4444130355921,None,825.4702989111338,None,825.9365157406119,None,1,[0.0094864781058277],[0.5165068054484436],826.4444130355921,None,[0 3 2 0 2 0 2 2],space,0,1.869341953244657,0.0029378928975347662,None,826.4527605205476,None,1,828.3261800689343,None,None,828.8257493143872,None,,,,,,,,,,,,,,,,,,,,,,,,,,,,,,,,,,,,,,,,,,,,,,14_CS,14,30,F,2022-12-06_13h43.56.132,dynamic target,2022.1.3,120.1052745113644,
1,5,4,2,mix,0,154,154,154,,,,,,,None,829.858221106555,None,828.867377567216,829.8665247816152,829.3586221627393,None,1,[0.2250372592570784],[0.7250621147995844],829.858221106555,None,[2 1 2 0 3 3 2 2],space,0,1.4071847552568215,0.0032156335255422164,None,830.0830075653848,None,1,831.4901657046757,None,None,831.9897375158623,None,,,,,,,,,,,,,,,,,,,,,,,,,,,,,,,,,,,,,,,,,,,,,,14_CS,14,30,F,2022-12-06_13h43.56.132,dynamic target,2022.1.3,120.1052745113644,
0,4,4,2,mix,0,155,155,155,,,,,,,None,833.0138677884042,None,832.0230402848974,None,832.5142986712381,None,1,[0.008646841886729817],[0.5175760747933964],833.0138677884042,None,[3 3 3 0 1 0 0 2],space,0,2.2189304898056434,0.002601461119411397,None,833.03051683169,None,1,835.2536506375673,None,None,835.7532080165045,None,,,,,,,,,,,,,,,,,,,,,,,,,,,,,,,,,,,,,,,,,,,,,,14_CS,14,30,F,2022-12-06_13h43.56.132,dynamic target,2022.1.3,120.1052745113644,
1,3,3,2,mix,0,156,156,156,,,,,,,None,836.7773475898302,None,835.7865374050234,836.7856968066553,836.2777730204798,None,2,"[0.008661274137921282, 0.7918263434748951]","[0.39988749259646283, 1.2995127993217466]",836.7773475898302,None,[2 1 1 3 3 2 2 0],space,0,1.5130600599768513,0.003052068028409849,None,837.5766735716952,None,1,839.0920553030974,None,None,839.5916283971499,None,,,,,,,,,,,,,,,,,,,,,,,,,,,,,,,,,,,,,,,,,,,,,,14_CS,14,30,F,2022-12-06_13h43.56.132,dynamic target,2022.1.3,120.1052745113644,
1,2,1,2,mix,0,157,157,157,,,,,,,None,840.6157698947754,None,839.6249690107525,None,840.1161898732425,None,1,[0.00908397869534383],[0.5175484931605752],840.6157698947754,None,[1 0 2 1 1 3 1 3],space,0,1.9287620911090926,0.0026466821691428777,None,840.6324234280946,None,1,842.5641210423164,None,None,843.0636931742181,None,,,,,,,,,,,,,,,,,,,,,,,,,,,,,,,,,,,,,,,,,,,,,,14_CS,14,30,F,2022-12-06_13h43.56.132,dynamic target,2022.1.3,120.1052745113644,
0,1,2,2,mix,0,158,158,158,,,,,,,None,844.0961579106206,None,843.1220294821997,844.121141738482,843.5965692297377,None,1,[0.5254220871793223],[1.0330193837944535],844.0961579106206,None,[1 2 3 3 1 1 1 2],space,0,2.1569840668053075,0.00318420329131186,None,844.6290408294753,None,1,846.7855508805751,None,None,847.2851557255769,None,,,,,,,,,,,,,,,,,,,,,,,,,,,,,,,,,,,,,,,,,,,,,,14_CS,14,30,F,2022-12-06_13h43.56.132,dynamic target,2022.1.3,120.1052745113644,
1,8,4,2,mix,0,159,159,159,,,,,,,None,848.3092702830036,None,847.3184681161129,848.317589993896,847.809714635936,None,3,"[0.007790528403347707, 0.35720074649907474, 0.9077092908719351]","[0.03270444003283046, 0.6076669883441355, 1.414943215511812]",848.3092702830036,None,[3 2 0 1 1 2 2 3],space,0,1.3364657694401103,0.0033352608425047947,None,849.2251536794047,None,1,850.565704741186,None,None,851.0652601958216,None,,,,,,,,,,,,,,,,,,,,,,,,,,,,,,,,,,,,,,,,,,,,,,14_CS,14,30,F,2022-12-06_13h43.56.132,dynamic target,2022.1.3,120.1052745113644,
1,7,2,2,mix,0,160,160,160,,,,,,,None,852.0893975241306,None,851.0985841321581,None,851.5898200683314,None,1,[0.009053510611920501],[0.5177130208085146],852.0893975241306,None,[3 2 0 0 1 3 0 2],space,0,1.3825505085533223,0.0025305827402917203,None,852.1060545853343,None,1,853.488219275263,None,None,853.9877910864495,None,,,,,,,,,,,,,,,,,,,,,,,,,,,,,,,,,,,,,,,,,,,,,,14_CS,14,30,F,2022-12-06_13h43.56.132,dynamic target,2022.1.3,120.1052745113644,
1,6,4,2,mix,0,161,161,161,,,,,,,None,855.0202538985504,None,854.0294289607773,None,854.5206815742185,None,1,[0.009003478813610855],[0.5175975628098968],855.0202538985504,None,[0 0 1 2 0 2 2 0],space,0,1.2524857911394065,0.0025280170048063155,None,855.0369199398192,None,1,856.2941757533699,None,None,856.7937526960238,None,,,,,,,,,,,,,,,,,,,,,,,,,,,,,,,,,,,,,,,,,,,,,,14_CS,14,30,F,2022-12-06_13h43.56.132,dynamic target,2022.1.3,120.1052745113644,
0,5,1,2,mix,0,162,162,162,,,,,,,None,857.8262177531415,None,856.8437773110272,None,857.3266361280257,None,1,[0.008655180519781425],[0.5174506745806866],857.8262177531415,None,[1 3 1 2 3 1 1 0],space,0,1.1654609288616484,0.002667528751771897,None,857.8428950194939,None,1,859.0085467782883,None,None,859.5081230795083,None,,,,,,,,,,,,,,,,,,,,,,,,,,,,,,,,,,,,,,,,,,,,,,14_CS,14,30,F,2022-12-06_13h43.56.132,dynamic target,2022.1.3,120.1052745113644,
0,4,4,2,mix,0,163,163,163,,,,,,,None,860.5405839673094,None,859.5580873997787,860.5572410285113,860.0409930414098,None,8,"[1.3243824520504859, 1.3498685222039057, 1.465992648531028, 1.9655258454331488, 2.0074560209250194, 2.0409802127433068, 2.4657011170875194, 2.482153240343905]","[1.3334327554966876, 1.3578229368213215, 1.9326870251170476, 1.9825873303434491, 2.032575832652583, 2.440472903130285, 2.4741677162110136, 2.989838092607897]",860.5405839673094,None,[1 2 1 3 1 3 1 1],space,0,1.194309392485593,0.0030495022947434336,None,863.030160836197,None,1,864.2208188730201,None,None,864.720379459123,None,,,,,,,,,,,,,,,,,,,,,,,,,,,,,,,,,,,,,,,,,,,,,,14_CS,14,30,F,2022-12-06_13h43.56.132,dynamic target,2022.1.3,120.1052745113644,
0,5,4,1,mix,0,164,164,164,,,,,,,None,865.7528425919409,None,864.7787340479535,None,865.2532667397245,None,1,[0.0076590345706790686],[0.5164987875305087],865.7528425919409,None,[3 2 1 2 0 3 3 2],space,0,2.277994952892186,0.0024779852046776796,None,865.7694990117106,None,1,868.0509012619223,None,None,868.5504759595594,None,,,,,,,,,,,,,,,,,,,,,,,,,,,,,,,,,,,,,,,,,,,,,,14_CS,14,30,F,2022-12-06_13h43.56.132,dynamic target,2022.1.3,120.1052745113644,
0,4,3,2,mix,0,165,165,165,,,,,,,None,869.5829419788279,None,868.608812908973,869.6079200337899,869.0833597122783,None,5,"[0.008545495422367821, 0.08344534362731792, 0.26658289547413005, 0.40818154615590174, 0.4331291330345266]","[0.06680335610690236, 0.09176633738570672, 0.38317526812716096, 0.4165265936644573, 0.9335388485687872]",869.5829419788279,None,[2 1 3 3 0 3 1 1],space,0,2.0807497165769746,0.0028211520329932682,None,870.0159129985495,None,1,872.0974789425454,None,None,872.5970475465645,None,,,,,,,,,,,,,,,,,,,,,,,,,,,,,,,,,,,,,,,,,,,,,,14_CS,14,30,F,2022-12-06_13h43.56.132,dynamic target,2022.1.3,120.1052745113644,
1,3,3,2,mix,0,166,166,166,,,,,,,None,873.6295161315666,None,872.6386876659108,873.6378403324925,873.1299399586333,None,5,"[0.5500951405974774, 0.9998515081861115, 1.0332560726892552, 1.3166227124474972, 1.340987236439105]","[0.9415554822171543, 1.0167628976996639, 1.0412249195560435, 1.3248250410433684, 1.8495232707191462]",873.6295161315666,None,[1 3 3 2 1 1 3 2],space,0,1.725451461308694,0.002617176236526575,None,874.9783827349238,None,1,876.7019169555515,None,None,877.2014884460211,None,,,,,,,,,,,,,,,,,,,,,,,,,,,,,,,,,,,,,,,,,,,,,,14_CS,14,30,F,2022-12-06_13h43.56.132,dynamic target,2022.1.3,120.1052745113644,
1,2,1,2,mix,0,167,167,167,,,,,,,None,878.2256321886634,None,877.2431731449815,878.2422799490814,877.7260672408138,None,15,"[0.00871419238683302, 0.5252376750995609, 0.5422510525131656, 0.5670116615783627, 0.5922203118207108, 0.6340292564163974, 0.6505859333028639, 0.6668520408966288, 0.7004086250981345, 0.7338725221834466, 0.7840114406044449, 0.8001996140501433, 0.8165750860243861, 0.8666440882152529, 0.8919467084378994]","[0.15848726931290003, 0.5341558432810416, 0.55075228903479, 0.5842681422200258, 0.6005897337963688, 0.6421350492964848, 0.6585958319028578, 0.674911329861061, 0.7086250652264425, 0.7750143761240906, 0.7920502037031838, 0.8084170163292583, 0.8253191050607711, 0.8751135737875302, 1.3995725488348398]",878.2256321886634,None,[1 3 3 0 3 0 2 3],space,0,2.011487425832456,0.003150528043988743,None,879.1248803325961,None,1,881.1398308604475,None,None,881.6394017094833,None,,,,,,,,,,,,,,,,,,,,,,,,,,,,,,,,,,,,,,,,,,,,,,14_CS,14,30,F,2022-12-06_13h43.56.132,dynamic target,2022.1.3,120.1052745113644,
1,1,4,2,mix,0,168,168,168,,,,,,,None,882.6718558622342,None,881.689415099403,882.6885369771862,882.1722905936676,None,3,"[0.0168876564821403, 0.2749648254011845, 0.29997559346338676]","[0.2667018813572213, 0.2916398467368708, 0.8003532373295457]",882.6718558622342,None,[0 3 1 2 3 3 1 0],space,0,1.619283342275594,0.002297101009389735,None,882.9716172169683,None,1,884.5952507635448,None,None,885.0948293097815,None,,,,,,,,,,,,,,,,,,,,,,,,,,,,,,,,,,,,,,,,,,,,,,14_CS,14,30,F,2022-12-06_13h43.56.132,dynamic target,2022.1.3,120.1052745113644,
0,2,4,1,mix,0,169,169,169,,,,,,,None,886.1272786517839,None,885.1364806542097,886.1355980419594,885.6277018374167,None,3,"[0.008962747797340853, 0.6591538788907201, 1.3249603834738082]","[0.3416440641594818, 1.0336499127497518, 1.832729904936059]",886.1272786517839,None,[0 2 2 0 0 1 2 0],space,0,2.491496996017304,0.002525771989894565,None,887.4594987775872,None,1,889.9490461405439,None,None,890.448623403913,None,,,,,,,,,,,,,,,,,,,,,,,,,,,,,,,,,,,,,,,,,,,,,,14_CS,14,30,F,2022-12-06_13h43.56.132,dynamic target,2022.1.3,120.1052745113644,
1,1,4,2,mix,0,170,170,170,,,,,,,None,891.4727591286373,None,890.4819293801156,891.4810836502802,890.9731816728381,None,7,"[0.00865261478611501, 0.08349056467523042, 0.11738069420243846, 0.13341588580078678, 0.15838816786344978, 0.5420743376307655, 0.6255912010728935]","[0.07512467058222683, 0.1002252393100207, 0.12512407725807861, 0.1500402339042921, 0.5338575767855218, 0.6172823945471464, 1.13309581057365]",891.4727591286373,None,[1 2 1 2 1 0 0 0],space,0,2.0222333582642023,0.0029003690506215207,None,892.1055558709268,None,1,894.1288456733873,None,None,894.6284165224231,None,,,,,,,,,,,,,,,,,,,,,,,,,,,,,,,,,,,,,,,,,,,,,,14_CS,14,30,F,2022-12-06_13h43.56.132,dynamic target,2022.1.3,120.1052745113644,
0,8,3,2,mix,0,171,171,171,,,,,,,None,895.6608822209746,None,894.686715947988,895.6858747081878,895.1613060480413,None,5,"[0.00865261478611501, 0.33327432146688807, 0.3582626393636019, 0.5671777928073425, 0.6007805602075678]","[0.32497353285725694, 0.34159980526055733, 0.3665951789225801, 0.5752803785217111, 1.1085366115694342]",895.6608822209746,None,[1 3 2 1 3 2 1 0],space,0,1.5542304577011237,0.002649889336680644,None,896.2687060397675,None,1,897.8257222459015,None,None,898.3252639097216,None,,,,,,,,,,,,,,,,,,,,,,,,,,,,,,,,,,,,,,,,,,,,,,14_CS,14,30,F,2022-12-06_13h43.56.132,dynamic target,2022.1.3,120.1052745113644,
0,7,1,2,mix,0,172,172,172,,,,,,,None,899.3577696978555,None,898.3669261585164,None,898.8581774890899,None,1,[0.008220609446652816],[0.5169615816721489],899.3577696978555,None,[1 2 2 1 1 2 0 2],space,0,1.9848393992160709,0.002708901203732239,None,899.374411043942,None,1,901.3643941004811,None,None,901.8639665530998,None,,,,,,,,,,,,,,,,,,,,,,,,,,,,,,,,,,,,,,,,,,,,,,14_CS,14,30,F,2022-12-06_13h43.56.132,dynamic target,2022.1.3,120.1052745113644,
1,6,1,2,mix,0,173,173,173,,,,,,,None,902.8964736241014,None,901.9139366462714,None,902.3968522301184,None,1,[0.007963715401274385],[0.5167502293934376],902.8964736241014,None,[3 0 2 3 1 2 0 1],space,0,2.413547773803657,0.002736803551670164,None,902.9130854642535,None,1,905.3277140567225,None,None,905.8272794535758,None,,,,,,,,,,,,,,,,,,,,,,,,,,,,,,,,,,,,,,,,,,,,,,14_CS,14,30,F,2022-12-06_13h43.56.132,dynamic target,2022.1.3,120.1052745113644,
0,5,3,2,mix,0,174,174,174,,,,,,,None,906.8597454728424,None,905.8772405666805,906.8763977232957,906.3601657720264,None,2,"[0.00894222193164751, 0.3666092904568359]","[0.15845199048089853, 0.8670372868400591]",906.8597454728424,None,[2 3 0 0 2 1 2 3],space,0,2.164460934316594,0.0027698373669409193,None,907.2261030007212,None,1,909.3909411013465,None,None,909.8905100260824,None,,,,,,,,,,,,,,,,,,,,,,,,,,,,,,,,,,,,,,,,,,,,,,14_CS,14,30,F,2022-12-06_13h43.56.132,dynamic target,2022.1.3,120.1052745113644,
1,4,4,2,mix,0,175,175,175,,,,,,,None,910.9229763660678,None,909.9488777642964,910.9479621182309,910.4233963445349,None,23,"[0.008651652637126972, 0.04196481289181975, 0.07522601704840781, 0.09187922965065809, 0.13349317851680098, 0.15010662225358828, 0.20836127577240404, 0.22510300617432222, 0.26673619803841575, 0.3000015715115296, 0.31665670841357496, 0.3333933073481603, 0.36662660915499146, 0.39183237294673745, 0.5182912729469535, 0.5511429219277488, 0.5673025515898189, 0.5836090694829181, 1.0168257581663056, 1.1086010756189353, 1.1500963593207416, 1.1665847235599358, 1.208519389085268]","[0.03355690491844143, 0.06687391377272434, 0.0835146184253972, 0.12524178027342714, 0.14181192726027803, 0.1667861336227361, 0.21670856829769036, 0.24175974665922695, 0.29174760753448936, 0.3083479018878279, 0.3249870029576414, 0.3584130554772855, 0.37490975834953133, 0.5081524571542104, 0.5335022227263835, 0.5589312053143658, 0.5752691534398764, 1.0003887085931638, 1.074897923905155, 1.1165359265196457, 1.1583111958661902, 1.1747293231564981, 1.716052221652717]",910.9229763660678,None,[2 0 1 3 2 0 2 0],space,0,2.3078572018785053,0.003049181577807758,None,912.1385964220208,None,0,914.4533265854534,None,None,914.9528932651745,None,,,,,,,,,,,,,,,,,,,,,,,,,,,,,,,,,,,,,,,,,,,,,,14_CS,14,30,F,2022-12-06_13h43.56.132,dynamic target,2022.1.3,120.1052745113644,
1,3,1,2,mix,0,176,176,176,,,,,,,None,915.9853621708917,None,914.9945378745524,915.9936866925345,915.4857882429751,None,1,[0.9750543374193512],[1.4827818449994083],915.9853621708917,None,[0 3 1 1 2 0 1 0],space,0,1.6384445591647818,0.0030180720623320667,None,916.9678641906048,None,1,918.6164729056945,None,None,919.1160511312144,None,,,,,,,,,,,,,,,,,,,,,,,,,,,,,,,,,,,,,,,,,,,,,,14_CS,14,30,F,2022-12-06_13h43.56.132,dynamic target,2022.1.3,120.1052745113644,
1,2,2,2,mix,0,177,177,177,,,,,,,None,920.14850688755,None,919.1576845155105,920.1568362199432,919.6489297524677,None,2,"[0.1251227943903359, 0.14183726387636852]","[0.1335268537659431, 0.6426799469008984]",920.14850688755,None,[1 2 0 3 1 3 1 1],space,0,1.8829137201719277,0.0018763207481242716,None,920.2900542235657,None,0,922.1801228152381,None,None,922.6797055307895,None,,,,,,,,,,,,,,,,,,,,,,,,,,,,,,,,,,,,,,,,,,,,,,14_CS,14,30,F,2022-12-06_13h43.56.132,dynamic target,2022.1.3,120.1052745113644,
1,1,2,2,mix,0,178,178,178,,,,,,,None,923.7038338790317,None,922.7213995305337,923.720494468118,923.2042554610816,None,5,"[0.2666951463052101, 0.29169982075109147, 1.250272208266324, 1.2836078186865052, 1.9073969128457975]","[0.2750777176643169, 0.3005993873666739, 1.274555911657444, 1.6330706343160273, 2.4153758622869645]",923.7038338790317,None,[2 1 2 2 1 1 3 3],space,0,1.4032008128997404,0.0030379564941540593,None,925.6188821292508,None,1,927.0260248741415,None,None,927.5256168904787,None,,,,,,,,,,,,,,,,,,,,,,,,,,,,,,,,,,,,,,,,,,,,,,14_CS,14,30,F,2022-12-06_13h43.56.132,dynamic target,2022.1.3,120.1052745113644,
0,8,1,2,mix,0,179,179,179,,,,,,,None,928.5580614217306,None,927.5839294654252,928.5830385145418,928.0584833244975,None,6,"[0.008601941555753001, 0.4498157001708023, 0.5081505328544154, 0.5335205035771651, 0.5586967614362948, 0.5833973964872712]","[0.42484854957547213, 0.45814150468140724, 0.5253242685976147, 0.5504745484067826, 0.5669898528467456, 1.083602174074258]",928.5580614217306,None,[0 1 1 1 1 3 3 1],space,0,1.5605655738982023,0.0025498257382423617,None,929.1409030162431,None,1,930.7062447061708,None,space,931.2141502114955,None,18.93254173695459,,,,,,,,,,,,,,,,,,,,,,,,,,,,,,,,,,,,,,,,,,,,,14_CS,14,30,F,2022-12-06_13h43.56.132,dynamic target,2022.1.3,120.1052745113644,
1,7,3,2,mix,0,180,180,180,,,,,,,None,951.1889210353875,None,950.2064693681914,None,950.6893435795882,None,1,[0.008630485335743288],[0.5176087878917315],951.1889210353875,None,[1 0 2 2 2 1 1 3],space,0,1.5909095393089956,0.0024529693055228563,None,951.2056005467566,None,1,952.795898162196,None,None,953.2954667662168,None,,,,,,,,,,,,,,,,,,,,,,,,,,,,,,,,,,,,,,,,,,,,,,14_CS,14,30,F,2022-12-06_13h43.56.132,dynamic target,2022.1.3,120.1052745113644,
1,6,3,2,mix,0,181,181,181,,,,,,,None,954.3279340683512,None,953.3538094885298,954.3529114818793,953.8283665547679,None,2,"[0.008623750287370058, 0.7424029439225706]","[0.42486266110790893, 1.2496974840105395]",954.3279340683512,None,[0 3 3 0 1 0 3 3],space,0,1.4480607350851642,0.0030235242447815835,None,955.0773013745584,None,1,956.526103289365,None,None,957.0256471982018,None,,,,,,,,,,,,,,,,,,,,,,,,,,,,,,,,,,,,,,,,,,,,,,14_CS,14,30,F,2022-12-06_13h43.56.132,dynamic target,2022.1.3,120.1052745113644,
0,5,2,2,mix,0,182,182,182,,,,,,,None,958.04978356436,None,957.067331576447,958.06644671918,957.5502073914286,None,14,"[0.008663198437716346, 0.07520837763331656, 0.15848406214536226, 0.21676758016474196, 0.3749411885819427, 0.7666340497817146, 0.7921986955170723, 0.8420358195617155, 0.8750654662890156, 0.9165710129236686, 0.9419592644935619, 0.9752345801844058, 0.9921042765327002, 1.2915975121377414]","[0.06696628017198236, 0.10846926107296895, 0.18345826850782032, 0.3166339375311509, 0.3834154849064362, 0.7750310533901938, 0.8084487672767864, 0.8586944843464153, 0.9082878637291287, 0.9336613623345329, 0.9583421129518683, 0.983618755126372, 1.1916249975547544, 1.7992855715674523]",958.04978356436,None,[3 3 1 2 2 0 3 3],space,0,1.6886386408514227,0.003026089978447999,None,959.3486886056089,None,1,961.0389228153654,None,None,961.5384949472689,None,,,,,,,,,,,,,,,,,,,,,,,,,,,,,,,,,,,,,,,,,,,,,,14_CS,14,30,F,2022-12-06_13h43.56.132,dynamic target,2022.1.3,120.1052745113644,
1,4,1,2,mix,0,183,183,183,,,,,,,None,962.5626390106263,None,961.5718118278364,None,962.0630836842774,None,1,[0.008683403586474014],[0.5175141764775617],962.5626390106263,None,[3 1 2 2 0 0 3 0],space,0,1.1448930487003963,0.002662718001374742,None,962.579288374629,None,1,963.7283215582211,None,None,964.2278760507077,None,,,,,,,,,,,,,,,,,,,,,,,,,,,,,,,,,,,,,,,,,,,,,,14_CS,14,30,F,2022-12-06_13h43.56.132,dynamic target,2022.1.3,120.1052745113644,
0,3,1,2,mix,0,184,184,184,,,,,,,None,965.2520262076814,None,964.269587689867,None,964.7524484311652,None,1,[0.00863465465408808],[0.5173502902653127],965.2520262076814,None,[2 0 2 2 2 3 1 0],space,0,1.352501602470511,0.002764385182672413,None,965.2686823067343,None,1,966.625867338118,None,None,967.1254381871538,None,,,,,,,,,,,,,,,,,,,,,,,,,,,,,,,,,,,,,,,,,,,,,,14_CS,14,30,F,2022-12-06_13h43.56.132,dynamic target,2022.1.3,120.1052745113644,
1,2,3,2,mix,0,185,185,185,,,,,,,None,968.1495764776137,None,967.1587650099391,None,967.6500009461142,None,1,[0.017387333038641373],[0.5175674154434091],968.1495764776137,None,[2 3 0 0 3 2 3 3],space,0,1.3823795665739453,0.0024985110721900128,None,968.1662319352326,None,1,969.5483921351279,None,None,970.0479649084652,None,,,,,,,,,,,,,,,,,,,,,,,,,,,,,,,,,,,,,,,,,,,,,,14_CS,14,30,F,2022-12-06_13h43.56.132,dynamic target,2022.1.3,120.1052745113644,
0,1,1,2,mix,0,186,186,186,,,,,,,None,971.0721051232231,None,970.0896637189599,971.0887557700935,970.572526705273,None,1,[0.05019311953765282],[0.5505062993561296],971.0721051232231,None,[3 2 3 1 1 0 1 0],space,0,1.9787156352995225,0.00283590499748243,None,971.1220644403147,None,1,973.1037191266114,None,None,973.6032886927812,None,,,,,,,,,,,,,,,,,,,,,,,,,,,,,,,,,,,,,,,,,,,,,,14_CS,14,30,F,2022-12-06_13h43.56.132,dynamic target,2022.1.3,120.1052745113644,
