tar_letter,tar_pos,tar_ori,tar_pos_type,block,trials.thisRepN,trials.thisTrialN,trials.thisN,trials.thisIndex,instructions_key.keys,instructions_key.rt,instructions_key.started,instructions_key.stopped,instruction_text.started,instruction_text.stopped,fix_key.keys,fix_key.started,fix_key.stopped,fixcross.started,fixcross.stopped,roi.started,roi.stopped,roi.numLooks,roi.timesOn,roi.timesOff,RedFixCross.started,RedFixCross.stopped,distori,search_resp.keys,search_resp.corr,search_resp.rt,search_resp.started,search_resp.stopped,fixcross_shape.started,fixcross_shape.stopped,correct,feedback_text.started,feedback_text.stopped,break_key.keys,break_key.started,break_key.stopped,break_key.rt,text_q1.started,text_q1.stopped,key_resp1.keys,key_resp1.rt,key_resp1.started,key_resp1.stopped,text_q2.started,text_q2.stopped,key_resp_2.keys,key_resp_2.rt,key_resp_2.started,key_resp_2.stopped,image.started,image.stopped,text_q1_2.started,text_q1_2.stopped,slider.response,slider.rt,slider.started,slider.stopped,mouse.x,mouse.y,mouse.leftButton,mouse.midButton,mouse.rightButton,mouse.time,mouse.started,mouse.stopped,key_resp_3.keys,key_resp_3.rt,key_resp_3.started,key_resp_3.stopped,text_q4.started,text_q4.stopped,key_resp1_3.keys,key_resp1_3.rt,key_resp1_3.started,key_resp1_3.stopped,finish_text.started,finish_text.stopped,key_resp.keys,key_resp.rt,key_resp.started,key_resp.stopped,participant,group,age,gender,date,expName,psychopyVersion,frameRate,
,,,,,,,,,space,5.699018920024855,44.765768603141396,None,,,,,,,,,,,,,,,,,,,,,,,,,,,,,,,,,,,,,,,,,,,,,,,,,,,,,,,,,,,,,,,,,,,,,,,,,,15_ZTY,15,23,F,2022-12-07_12h16.05.019,dynamic target,2022.1.3,120.08580947071276,
1,5,4,0,L,0,0,0,0,,,,,44.765768603141396,None,None,83.67510570987247,None,82.72697057827395,None,83.1755460607676,None,1,[0.03324312500967608],[0.5413262740348728],83.67510570987247,None,[3 0 3 1 1 3 0 3],space,0,2.962386921235975,0.007623298250791777,None,83.7251004500365,None,1,86.68929636224607,None,None,87.1888804182724,None,,,,,,,,,,,,,,,,,,,,,,,,,,,,,,,,,,,,,,,,,,,,,,15_ZTY,15,23,F,2022-12-07_12h16.05.019,dynamic target,2022.1.3,120.08580947071276,
1,6,4,2,L,0,1,1,1,,,,,,,None,88.22136115572698,None,87.23883984697704,None,87.72177360383421,None,1,[0.008646336331821658],[0.5172740708048877],88.22136115572698,None,[3 2 1 2 2 2 1 2],space,0,2.8760868052629576,0.002282287695152263,None,88.23801495076259,None,1,91.11895439593991,None,None,91.61854454567829,None,,,,,,,,,,,,,,,,,,,,,,,,,,,,,,,,,,,,,,,,,,,,,,15_ZTY,15,23,F,2022-12-07_12h16.05.019,dynamic target,2022.1.3,120.08580947071276,
1,7,3,2,L,0,2,2,2,,,,,,,None,92.64270768654455,None,91.6518386333662,None,92.14312270042524,None,1,[0.007880452910285385],[0.5168067792869806],92.64270768654455,None,[2 2 3 0 2 1 2 2],space,0,2.8227155070328536,0.002299285945355223,None,92.65934897343391,None,1,95.4820068711415,None,None,95.98159413438493,None,,,,,,,,,,,,,,,,,,,,,,,,,,,,,,,,,,,,,,,,,,,,,,15_ZTY,15,23,F,2022-12-07_12h16.05.019,dynamic target,2022.1.3,120.08580947071276,
1,1,2,0,L,0,3,3,3,,,,,,,None,97.01407679616977,None,96.03994492566949,None,96.51446839736627,None,1,[0.008659485921498344],[0.516987345604548],97.01407679616977,None,[1 1 1 1 0 3 0 2],space,0,2.8353400753414917,0.0028105163362397434,None,97.03073379842249,None,1,99.87003875601022,None,None,100.36961928409774,None,,,,,,,,,,,,,,,,,,,,,,,,,,,,,,,,,,,,,,,,,,,,,,15_ZTY,15,23,F,2022-12-07_12h16.05.019,dynamic target,2022.1.3,120.08580947071276,
1,2,3,2,L,0,4,4,4,,,,,,,None,101.40209841794399,None,100.42797392404282,None,100.90251503543323,None,1,[0.00865980664343624],[0.5176047348786597],101.40209841794399,None,[2 1 3 1 1 2 0 1],space,0,2.4792113402165796,0.0022175019116730255,None,101.41875349586644,None,1,103.90003585668615,None,None,104.39961413972169,None,,,,,,,,,,,,,,,,,,,,,,,,,,,,,,,,,,,,,,,,,,,,,,15_ZTY,15,23,F,2022-12-07_12h16.05.019,dynamic target,2022.1.3,120.08580947071276,
1,3,1,2,L,0,5,5,5,,,,,,,None,105.43210321594051,None,104.44958094502567,None,104.93251790909972,None,1,[0.008691237369930604],[0.5170296808689727],105.43210321594051,None,[1 3 0 3 3 0 1 2],space,0,2.737332975845902,0.002854775931155018,None,105.44875187942898,None,1,108.18814817855719,None,None,108.6877187642719,None,,,,,,,,,,,,,,,,,,,,,,,,,,,,,,,,,,,,,,,,,,,,,,15_ZTY,15,23,F,2022-12-07_12h16.05.019,dynamic target,2022.1.3,120.08580947071276,
1,4,1,2,L,0,6,6,6,,,,,,,None,109.7202168206984,None,108.73771475525064,None,109.2123084650002,None,1,[0.016915183221726693],[0.5252507402256015],109.7202168206984,None,[3 3 2 1 0 1 3 2],space,0,2.465704145787413,0.0029195617146342556,None,109.73685650397942,None,1,112.20148314543303,None,None,112.70106046630367,None,,,,,,,,,,,,,,,,,,,,,,,,,,,,,,,,,,,,,,,,,,,,,,15_ZTY,15,23,F,2022-12-07_12h16.05.019,dynamic target,2022.1.3,120.08580947071276,
1,5,1,2,L,0,7,7,7,,,,,,,None,113.72521302335349,None,112.73436962791129,None,113.22562771651269,None,1,[0.009261480554187074],[0.5174764461983159],113.72521302335349,None,[0 3 0 3 2 2 2 0],space,0,2.7477144165791287,0.002441044936858816,None,113.74187836437045,None,1,116.48958969431351,None,None,116.98918593776439,None,,,,,,,,,,,,,,,,,,,,,,,,,,,,,,,,,,,,,,,,,,,,,,15_ZTY,15,23,F,2022-12-07_12h16.05.019,dynamic target,2022.1.3,120.08580947071276,
1,6,1,2,L,0,8,8,8,,,,,,,None,118.0216220949028,None,117.04751588213844,118.04660471178659,117.52206757734507,None,1,[0.7341698182917753],[1.2416419924770707],118.0216220949028,None,[2 1 2 0 0 3 1 2],space,0,2.6704153551390846,0.002405765550065553,None,118.76270923883749,None,1,121.43548875421425,None,None,121.93508595983003,None,,,,,,,,,,,,,,,,,,,,,,,,,,,,,,,,,,,,,,,,,,,,,,15_ZTY,15,23,F,2022-12-07_12h16.05.019,dynamic target,2022.1.3,120.08580947071276,
1,7,2,2,L,0,9,9,9,,,,,,,None,122.96754969903463,None,121.98505468946428,None,122.4679740138447,None,1,[0.025215140116870316],[0.525399234373026],122.96754969903463,None,[1 3 2 3 2 2 3 2],space,0,3.3212565440160233,0.0025943499099412293,None,122.99253231591842,None,1,126.314784179953,None,None,126.81436278371025,None,,,,,,,,,,,,,,,,,,,,,,,,,,,,,,,,,,,,,,,,,,,,,,15_ZTY,15,23,F,2022-12-07_12h16.05.019,dynamic target,2022.1.3,120.08580947071276,
1,8,3,2,L,0,10,10,10,,,,,,,None,127.84683999322624,None,126.86432221241512,127.86348865671471,127.34727874051305,None,1,[0.6425021039342482],[1.1499085301709329],127.84683999322624,None,[0 0 3 2 2 3 0 1],space,0,1.769508418313535,0.002729694467916488,None,128.49630336167638,None,1,130.26983727863785,None,None,130.7694303148716,None,,,,,,,,,,,,,,,,,,,,,,,,,,,,,,,,,,,,,,,,,,,,,,15_ZTY,15,23,F,2022-12-07_12h16.05.019,dynamic target,2022.1.3,120.08580947071276,
1,1,3,2,L,0,11,11,11,,,,,,,None,131.80191172584176,None,130.81105226224258,None,131.30231003012204,None,1,[0.008727799643793333],[0.5090225428868962],131.80191172584176,None,[0 2 1 1 3 1 2 1],space,0,2.2298745926937045,0.0016225631566157972,None,131.81022447953274,None,1,134.04170632925025,None,None,134.54127883929522,None,,,,,,,,,,,,,,,,,,,,,,,,,,,,,,,,,,,,,,,,,,,,,,15_ZTY,15,23,F,2022-12-07_12h16.05.019,dynamic target,2022.1.3,120.08580947071276,
1,2,3,2,L,0,12,12,12,,,,,,,None,135.57377080200945,None,134.59957254211713,135.59875598466692,135.07418196722983,None,2,"[0.008627734473293458, 0.7001964099695215]","[0.3249500957033433, 1.2083607015852067]",135.57377080200945,None,[0 0 3 2 2 3 0 0],space,0,1.8880696094481664,0.002553618253841705,None,136.28152726391022,None,1,138.17162074787166,None,None,138.6711823533787,None,,,,,,,,,,,,,,,,,,,,,,,,,,,,,,,,,,,,,,,,,,,,,,15_ZTY,15,23,F,2022-12-07_12h16.05.019,dynamic target,2022.1.3,120.08580947071276,
1,3,2,2,L,0,13,13,13,,,,,,,None,139.70367752331003,None,138.7211805894094,None,139.20407489749732,None,1,[0.008618754265626194],[0.5171874759457751],139.70367752331003,None,[0 2 3 3 1 1 2 3],space,0,3.665008628707028,0.0027110926091609144,None,139.72033067690222,None,1,143.38395968143345,None,None,143.88354277529464,None,,,,,,,,,,,,,,,,,,,,,,,,,,,,,,,,,,,,,,,,,,,,,,15_ZTY,15,23,F,2022-12-07_12h16.05.019,dynamic target,2022.1.3,120.08580947071276,
1,4,1,2,L,0,14,14,14,,,,,,,None,144.91602190914068,None,143.93350990132012,144.93267666634165,144.41644494106413,None,1,[0.2166776567303259],[0.7167716281885532],144.91602190914068,None,[3 2 3 0 2 2 1 2],space,0,3.8366652974091267,0.002925334705196292,None,145.13251001934577,None,1,148.9709948915447,None,None,149.47058055117935,None,,,,,,,,,,,,,,,,,,,,,,,,,,,,,,,,,,,,,,,,,,,,,,15_ZTY,15,23,F,2022-12-07_12h16.05.019,dynamic target,2022.1.3,120.08580947071276,
1,5,2,2,L,0,15,15,15,,,,,,,None,150.5030590435822,None,149.52054382854453,None,150.00347020880258,None,1,[0.007934654877772118],[0.5170665638647733],150.5030590435822,None,[1 2 0 2 1 2 1 3],space,0,3.2164164686848835,0.0018534827813709853,None,150.51972727109433,None,1,153.73371375203328,None,None,154.23329684589447,None,,,,,,,,,,,,,,,,,,,,,,,,,,,,,,,,,,,,,,,,,,,,,,15_ZTY,15,23,F,2022-12-07_12h16.05.019,dynamic target,2022.1.3,120.08580947071276,
1,6,4,2,L,0,16,16,16,,,,,,,None,155.26577630046222,None,154.28328064944844,155.28243618921033,154.76618842784774,None,2,"[0.008604321789107416, 0.6668628414402065]","[0.11678824157274903, 1.1745848578304958]",155.26577630046222,None,[3 1 0 3 3 1 0 3],space,0,2.8849470629693315,0.003094675763122723,None,155.94022324796128,None,1,158.829489911378,None,None,159.3290771746212,None,,,,,,,,,,,,,,,,,,,,,,,,,,,,,,,,,,,,,,,,,,,,,,15_ZTY,15,23,F,2022-12-07_12h16.05.019,dynamic target,2022.1.3,120.08580947071276,
1,6,4,0,L,0,17,17,17,,,,,,,None,160.36155181836375,None,159.37070842292155,160.36987967804657,159.86196490791417,None,1,[0.7169188394493631],[1.2244278966300044],160.36155181836375,None,[1 3 3 3 3 2 2 1],space,0,3.1629149574441726,0.0029782537856135605,None,161.08595213292756,None,1,164.24999486845263,None,None,164.74958565963465,None,,,,,,,,,,,,,,,,,,,,,,,,,,,,,,,,,,,,,,,,,,,,,,15_ZTY,15,23,F,2022-12-07_12h16.05.019,dynamic target,2022.1.3,120.08580947071276,
1,7,2,2,L,0,18,18,18,,,,,,,None,165.78205998265526,None,164.80788385256028,None,165.28248237313528,None,1,[0.008740949233470019],[0.5171643839832996],165.78205998265526,None,[3 2 2 2 0 2 2 3],space,0,2.9145727679156153,0.0028101956147565943,None,165.7987112119174,None,1,168.71296049221792,None,None,169.21252402205522,None,,,,,,,,,,,,,,,,,,,,,,,,,,,,,,,,,,,,,,,,,,,,,,15_ZTY,15,23,F,2022-12-07_12h16.05.019,dynamic target,2022.1.3,120.08580947071276,
1,8,2,2,L,0,19,19,19,,,,,,,None,170.2450339451848,None,169.2624972417932,None,169.74544126174465,None,1,[0.024887683260431004],[0.5253710108636369],170.2450339451848,None,[1 1 2 0 2 2 1 0],space,0,2.5863525937506893,0.002447459370841898,None,170.2700168827903,None,1,172.85952614010148,None,None,173.3591143655098,None,,,,,,,,,,,,,,,,,,,,,,,,,,,,,,,,,,,,,,,,,,,,,,15_ZTY,15,23,F,2022-12-07_12h16.05.019,dynamic target,2022.1.3,120.08580947071276,
1,1,2,2,L,0,20,20,20,,,,,,,None,174.39158612275673,None,173.40913024123392,None,173.8919995330291,None,1,[0.008522537755425219],[0.5169844591093806],174.39158612275673,None,[3 1 3 3 2 0 0 3],space,0,4.144026052875461,0.0027325809628564457,None,174.40824825655682,None,1,178.554804603511,None,None,179.0543860937634,None,,,,,,,,,,,,,,,,,,,,,,,,,,,,,,,,,,,,,,,,,,,,,,15_ZTY,15,23,F,2022-12-07_12h16.05.019,dynamic target,2022.1.3,120.08580947071276,
1,2,2,2,L,0,21,21,21,,,,,,,None,180.08687484926077,None,179.10436123783165,None,179.58728312798576,None,1,[0.007900979099076721],[0.5167208258710616],180.08687484926077,None,[1 3 1 3 3 3 3 1],space,0,2.9762481924228723,0.0022694588269587257,None,180.10351902264551,None,1,183.08438861463605,None,None,183.58396465261984,None,,,,,,,,,,,,,,,,,,,,,,,,,,,,,,,,,,,,,,,,,,,,,,15_ZTY,15,23,F,2022-12-07_12h16.05.019,dynamic target,2022.1.3,120.08580947071276,
1,3,3,2,L,0,22,22,22,,,,,,,None,184.61644506935272,None,183.64232121689497,None,184.11687066704962,None,1,[0.008634790350470212],[0.5170906179921531],184.61644506935272,None,[2 2 3 0 0 0 2 0],space,0,2.6235707435200766,0.002707243948862015,None,184.63310848603942,None,1,187.2559227676486,None,None,187.7555071443964,None,,,,,,,,,,,,,,,,,,,,,,,,,,,,,,,,,,,,,,,,,,,,,,15_ZTY,15,23,F,2022-12-07_12h16.05.019,dynamic target,2022.1.3,120.08580947071276,
1,4,2,2,L,0,23,23,23,,,,,,,None,188.78798242958214,None,187.8055185300168,None,188.28839744346305,None,1,[0.008705669846449382],[0.5176801044783588],188.78798242958214,None,[2 2 3 3 3 0 3 3],space,0,2.740327554366104,0.0024371962763325428,None,188.80464552554736,None,1,191.5440328444679,None,None,192.04362812575363,None,,,,,,,,,,,,,,,,,,,,,,,,,,,,,,,,,,,,,,,,,,,,,,15_ZTY,15,23,F,2022-12-07_12h16.05.019,dynamic target,2022.1.3,120.08580947071276,
1,5,3,2,L,0,24,24,24,,,,,,,None,193.0760986001137,None,192.1019551836323,None,192.57651553832488,None,1,[0.008663013860314095],[0.5171855516157393],193.0760986001137,None,[1 1 0 1 0 1 3 2],space,0,2.3073683322061243,0.0027476548830236425,None,193.09274886721073,None,1,195.3992180163491,None,None,195.89876262360593,None,,,,,,,,,,,,,,,,,,,,,,,,,,,,,,,,,,,,,,,,,,,,,,15_ZTY,15,23,F,2022-12-07_12h16.05.019,dynamic target,2022.1.3,120.08580947071276,
1,6,4,2,L,0,25,25,25,,,,,,,None,196.93127289952935,None,195.94871852437223,None,196.42332602515467,None,1,[0.008620357873951434],[0.5170338502512095],196.93127289952935,None,[3 2 3 1 1 1 2 2],space,0,4.252743974290979,0.00281821365729229,None,196.9395651270313,None,1,201.194368896666,None,None,201.69396161217804,None,,,,,,,,,,,,,,,,,,,,,,,,,,,,,,,,,,,,,,,,,,,,,,15_ZTY,15,23,F,2022-12-07_12h16.05.019,dynamic target,2022.1.3,120.08580947071276,
1,7,2,2,L,0,26,26,26,,,,,,,None,202.7264407460243,None,201.74486428340492,None,202.22682721567367,None,1,[0.008941721018345561],[0.5176954991200091],202.7264407460243,None,[2 1 0 2 3 1 2 3],space,0,2.4007291364221146,0.002350601417674625,None,202.7430563751775,None,1,205.1494210331855,None,None,205.64900284415984,None,,,,,,,,,,,,,,,,,,,,,,,,,,,,,,,,,,,,,,,,,,,,,,15_ZTY,15,23,F,2022-12-07_12h16.05.019,dynamic target,2022.1.3,120.08580947071276,
1,8,2,2,L,0,27,27,27,,,,,,,None,206.681468186973,None,205.69064467627618,206.6898393440856,206.18189859549534,None,2,"[0.00819187368188068, 0.24174975496862317]","[0.14127726775905103, 0.749925913287143]",206.681468186973,None,[3 1 1 1 1 3 3 1],space,0,3.0609251358680467,0.00270596106179255,None,206.9312584349807,None,1,209.99540053008877,None,None,210.49498651044513,None,,,,,,,,,,,,,,,,,,,,,,,,,,,,,,,,,,,,,,,,,,,,,,15_ZTY,15,23,F,2022-12-07_12h16.05.019,dynamic target,2022.1.3,120.08580947071276,
1,8,3,0,L,0,28,28,28,,,,,,,None,211.52747141728196,None,210.5533238314183,None,211.02787841312033,None,1,[0.008619716430530389],[0.5172840131776866],211.52747141728196,None,[2 2 2 0 1 0 3 3],space,0,2.0801135945050646,0.0028214208743975178,None,211.5441024410768,None,1,213.62572290671346,None,None,214.12531241500864,None,,,,,,,,,,,,,,,,,,,,,,,,,,,,,,,,,,,,,,,,,,,,,,15_ZTY,15,23,F,2022-12-07_12h16.05.019,dynamic target,2022.1.3,120.08580947071276,
1,1,3,2,L,0,29,29,29,,,,,,,None,215.15780181194918,None,214.1836599990761,None,214.65821907088184,None,1,[0.008658844478304673],[0.5170922216007057],215.15780181194918,None,[3 0 3 2 1 3 3 3],space,0,2.0496071877685154,0.0027797270529390516,None,215.17444951327275,None,1,217.2227447491441,None,None,217.722334578161,None,,,,,,,,,,,,,,,,,,,,,,,,,,,,,,,,,,,,,,,,,,,,,,15_ZTY,15,23,F,2022-12-07_12h16.05.019,dynamic target,2022.1.3,120.08580947071276,
1,1,4,0,L,0,30,30,30,,,,,,,None,218.75482076788467,None,217.7806728612993,None,218.25521910423709,None,1,[0.008639921897838576],[0.5174825399105885],218.75482076788467,None,[0 3 3 0 0 3 3 0],space,0,2.2922972987639696,0.002572861556245698,None,218.77146077188718,None,1,221.0612280177345,None,None,221.56082009180335,None,,,,,,,,,,,,,,,,,,,,,,,,,,,,,,,,,,,,,,,,,,,,,,15_ZTY,15,23,F,2022-12-07_12h16.05.019,dynamic target,2022.1.3,120.08580947071276,
1,2,4,2,L,0,31,31,31,,,,,,,None,222.59330788513535,None,221.61914843256886,None,222.09372001252086,None,1,[0.00866012736491939],[0.5170607908739839],222.59330788513535,None,[2 3 1 3 0 3 3 2],space,0,2.9976695155407924,0.002939125738294024,None,222.609942436869,None,1,225.60747191760765,None,None,226.1070534078603,None,,,,,,,,,,,,,,,,,,,,,,,,,,,,,,,,,,,,,,,,,,,,,,15_ZTY,15,23,F,2022-12-07_12h16.05.019,dynamic target,2022.1.3,120.08580947071276,
1,3,1,2,L,0,32,32,32,,,,,,,None,227.13952227861205,None,226.15700578068777,None,226.63993440599756,None,1,[0.008619074987336717],[0.5172686185362636],227.13952227861205,None,[0 3 1 2 1 2 3 1],space,0,2.978309150072164,0.002242197482246411,None,227.15617799797815,None,1,230.1370411755347,None,None,230.63662683516935,None,,,,,,,,,,,,,,,,,,,,,,,,,,,,,,,,,,,,,,,,,,,,,,15_ZTY,15,23,F,2022-12-07_12h16.05.019,dynamic target,2022.1.3,120.08580947071276,
1,4,4,2,L,0,33,33,33,,,,,,,None,231.66909795097308,None,230.67825295192233,231.67743254581183,231.16951520990574,None,2,"[0.009556865240483603, 0.4008809583679067]","[0.2586469777752427, 0.9087056057021528]",231.66909795097308,None,[0 1 2 2 0 2 3 3],space,0,3.146112026817491,0.0024897946357214096,None,232.07709476171658,None,1,235.2244891544749,None,None,235.7240863600909,None,,,,,,,,,,,,,,,,,,,,,,,,,,,,,,,,,,,,,,,,,,,,,,15_ZTY,15,23,F,2022-12-07_12h16.05.019,dynamic target,2022.1.3,120.08580947071276,
1,5,3,2,L,0,34,34,34,,,,,,,None,236.75654721280011,None,235.78240539992703,236.78152598102338,236.25696094379396,None,1,[0.12471327479943284],[0.6333843067022826],236.75654721280011,None,[2 2 0 3 3 1 3 3],space,0,2.653220502594195,0.0027601630292792834,None,236.88978013885958,None,1,239.54590201053998,None,None,240.0454860665663,None,,,,,,,,,,,,,,,,,,,,,,,,,,,,,,,,,,,,,,,,,,,,,,15_ZTY,15,23,F,2022-12-07_12h16.05.019,dynamic target,2022.1.3,120.08580947071276,
1,4,2,1,L,0,35,35,35,,,,,,,None,241.07796936979457,None,240.103833650634,241.10294204430556,240.57837989357154,None,2,"[0.008623565091056662, 0.5422634228445986]","[0.1333881553628089, 1.049843038799736]",241.07796936979457,None,[3 3 0 3 2 0 1 2],space,0,2.7631680710105684,0.0028172514921607217,None,241.62750996803038,None,1,244.39188150744326,None,None,244.89145562109678,None,,,,,,,,,,,,,,,,,,,,,,,,,,,,,,,,,,,,,,,,,,,,,,15_ZTY,15,23,F,2022-12-07_12h16.05.019,dynamic target,2022.1.3,120.08580947071276,
1,5,4,2,L,0,36,36,36,,,,,,,None,245.92395047030618,None,244.94142884083476,245.9405965680212,245.42436195624828,None,1,[0.06640959753281095],[0.5752862120459667],245.92395047030618,None,[3 2 3 1 1 1 1 1],space,0,3.2076043192334964,0.002623535584689307,None,245.9988931894104,None,1,249.20455886654372,None,None,249.7041451676218,None,,,,,,,,,,,,,,,,,,,,,,,,,,,,,,,,,,,,,,,,,,,,,,15_ZTY,15,23,F,2022-12-07_12h16.05.019,dynamic target,2022.1.3,120.08580947071276,
1,6,3,2,L,0,37,37,37,,,,,,,None,250.73662141497266,None,249.7624805642647,250.76160050391786,250.23703514596673,None,1,[0.08401369096782219],[0.5917494983912093],250.73662141497266,None,[0 1 3 2 1 3 0 3],space,0,1.7225820226608448,0.002570295782334142,None,250.82819002632482,None,1,252.5517843672544,None,None,253.05136970616758,None,,,,,,,,,,,,,,,,,,,,,,,,,,,,,,,,,,,,,,,,,,,,,,15_ZTY,15,23,F,2022-12-07_12h16.05.019,dynamic target,2022.1.3,120.08580947071276,
1,6,4,0,L,0,38,38,38,,,,,,,None,254.08384980217875,None,253.10133234208934,None,253.58426064667742,None,1,[0.008708556341844087],[0.5175486085809098],254.08384980217875,None,[0 1 2 3 3 3 3 3],space,0,2.5299238555471675,0.0022495740818158083,None,254.1005045593795,None,1,256.6317329106648,None,None,257.13132145679486,None,,,,,,,,,,,,,,,,,,,,,,,,,,,,,,,,,,,,,,,,,,,,,,15_ZTY,15,23,F,2022-12-07_12h16.05.019,dynamic target,2022.1.3,120.08580947071276,
1,7,1,2,L,0,39,39,39,,,,,,,None,258.16379545909376,None,257.1812834512732,258.18044797124276,257.66421335946984,None,1,[0.09174372540064724],[0.5921337229888195],258.16379545909376,None,[2 3 0 0 1 1 0 2],space,0,2.615050130095142,0.002284532746898549,None,258.25538652096475,None,1,260.8698880168108,None,None,261.3694701485069,None,,,,,,,,,,,,,,,,,,,,,,,,,,,,,,,,,,,,,,,,,,,,,,15_ZTY,15,23,F,2022-12-07_12h16.05.019,dynamic target,2022.1.3,120.08580947071276,
1,8,3,2,L,0,40,40,40,,,,,,,None,262.3936223848352,None,261.4027844416619,None,261.894040605933,None,1,[0.008613943439968352],[0.5176406557091013],262.3936223848352,None,[2 3 1 1 1 2 2 2],space,0,3.1962629584500064,0.002381390700747943,None,262.4102829150265,None,1,265.60763227845814,None,None,266.10722659757874,None,,,,,,,,,,,,,,,,,,,,,,,,,,,,,,,,,,,,,,,,,,,,,,15_ZTY,15,23,F,2022-12-07_12h16.05.019,dynamic target,2022.1.3,120.08580947071276,
1,4,2,0,L,0,41,41,41,,,,,,,None,267.13968745028797,None,266.15716966947684,267.15633964171525,266.64010150200374,None,2,"[0.008563910854945789, 0.20005304736946528]","[0.05145177885083285, 0.7004693441369909]",267.13968745028797,None,[0 0 1 3 1 1 2 3],space,0,3.5461517321641622,0.002516735258495828,None,267.33953812226423,None,1,270.88657997772907,None,None,271.38616371303345,None,,,,,,,,,,,,,,,,,,,,,,,,,,,,,,,,,,,,,,,,,,,,,,15_ZTY,15,23,F,2022-12-07_12h16.05.019,dynamic target,2022.1.3,120.08580947071276,
1,5,2,2,L,0,42,42,42,,,,,,,None,272.41865727935624,None,271.43612410390347,None,271.9190642751946,None,1,[0.008213682757286733],[0.5170399439634821],272.41865727935624,None,[0 3 3 0 0 1 2 2],space,0,3.4590068352310936,0.002603009396125344,None,272.43531364016553,None,1,275.8990884447819,None,None,276.3986760287468,None,,,,,,,,,,,,,,,,,,,,,,,,,,,,,,,,,,,,,,,,,,,,,,15_ZTY,15,23,F,2022-12-07_12h16.05.019,dynamic target,2022.1.3,120.08580947071276,
1,5,2,0,L,0,43,43,43,,,,,,,None,277.431151025283,None,276.4403152950895,None,276.9315708179172,None,1,[0.00864665705353218],[0.5089548706080222],277.431151025283,None,[1 2 3 0 0 3 2 1],space,0,2.0224096668189304,0.0026883213681685447,None,277.4394794943373,None,1,279.4628020556977,None,None,279.96239765770514,None,,,,,,,,,,,,,,,,,,,,,,,,,,,,,,,,,,,,,,,,,,,,,,15_ZTY,15,23,F,2022-12-07_12h16.05.019,dynamic target,2022.1.3,120.08580947071276,
1,6,2,2,L,0,44,44,44,,,,,,,None,280.98653514083526,None,279.9956994427139,None,280.4869517583245,None,1,[0.008735496964618505],[0.5175835672464473],280.98653514083526,None,[2 3 3 0 1 3 2 3],space,0,2.8905529575774835,0.0025635606266405375,None,281.00319086020113,None,1,283.89246137227815,None,None,284.39203420304483,None,,,,,,,,,,,,,,,,,,,,,,,,,,,,,,,,,,,,,,,,,,,,,,15_ZTY,15,23,F,2022-12-07_12h16.05.019,dynamic target,2022.1.3,120.08580947071276,
1,7,1,2,L,0,45,45,45,,,,,,,None,285.4245489369998,None,284.4420317976321,None,284.9249225777812,None,1,[0.00870150046443996],[0.5171717605824142],285.4245489369998,None,[1 2 1 2 0 2 0 3],space,0,2.6932683799295773,0.002754710760200396,None,285.44118605450717,None,1,288.13893888583834,None,None,288.638524545473,None,,,,,,,,,,,,,,,,,,,,,,,,,,,,,,,,,,,,,,,,,,,,,,15_ZTY,15,23,F,2022-12-07_12h16.05.019,dynamic target,2022.1.3,120.08580947071276,
1,8,2,2,L,0,46,46,46,,,,,,,None,289.6626754989145,None,288.68016028387706,None,289.16308890918685,None,1,[0.00860464251081794],[0.5173539305085342],289.6626754989145,None,[1 0 3 0 2 3 0 2],space,0,3.6543375762778396,0.002457081022157581,None,289.6793312182806,None,1,293.33463108024193,None,None,293.8342167398766,None,,,,,,,,,,,,,,,,,,,,,,,,,,,,,,,,,,,,,,,,,,,,,,15_ZTY,15,23,F,2022-12-07_12h16.05.019,dynamic target,2022.1.3,120.08580947071276,
1,1,3,2,L,0,47,47,47,,,,,,,None,294.8666952322794,None,293.8925684933263,294.8916711140075,294.36711794348093,None,1,[0.08311374587560749],[0.583238185895425],294.8666952322794,None,[3 3 1 2 1 3 3 1],space,0,1.9356198088089513,0.0029551618233654153,None,294.9499590759108,None,1,296.89002966034286,None,None,297.389600887501,None,,,,,,,,,,,,,,,,,,,,,,,,,,,,,,,,,,,,,,,,,,,,,,15_ZTY,15,23,F,2022-12-07_12h16.05.019,dynamic target,2022.1.3,120.08580947071276,
1,6,3,0,L,0,48,48,48,,,,,,,None,298.42208098351216,None,297.43124015384365,None,297.92249535594965,None,1,[0.008666221077419323],[0.5176438629262066],298.42208098351216,None,[3 1 1 3 1 0 2 2],space,0,2.8139992533701843,0.00214213231197391,None,298.43873349566115,None,1,301.25306898595477,None,None,301.7526501554857,None,,,,,,,,,,,,,,,,,,,,,,,,,,,,,,,,,,,,,,,,,,,,,,15_ZTY,15,23,F,2022-12-07_12h16.05.019,dynamic target,2022.1.3,120.08580947071276,
1,7,1,2,L,0,49,49,49,,,,,,,None,302.78512896861025,None,301.8192771702595,None,302.28555456630716,None,1,[0.008663334582024618],[0.5174347523773122],302.78512896861025,None,[1 1 2 3 2 1 2 2],space,0,2.2595288418713153,0.0023127562569698057,None,302.80177859426385,None,1,305.0665677133311,None,None,305.5661581837914,None,,,,,,,,,,,,,,,,,,,,,,,,,,,,,,,,,,,,,,,,,,,,,,15_ZTY,15,23,F,2022-12-07_12h16.05.019,dynamic target,2022.1.3,120.08580947071276,
1,8,2,2,L,0,50,50,50,,,,,,,None,306.59031074084146,None,305.59946670395584,None,306.09071837812303,None,1,[0.00862067859588933],[0.517584208689641],306.59031074084146,None,[3 1 2 0 0 2 2 2],space,0,1.7188084111294302,0.0025327713433398458,None,306.6069616493819,None,1,308.3305277668019,None,None,308.83011374715824,None,,,,,,,,,,,,,,,,,,,,,,,,,,,,,,,,,,,,,,,,,,,,,,15_ZTY,15,23,F,2022-12-07_12h16.05.019,dynamic target,2022.1.3,120.08580947071276,
1,7,3,1,L,0,51,51,51,,,,,,,None,309.86258871162227,None,308.8884581240088,None,309.3630037255032,None,1,[0.008477957439026795],[0.5169761203451344],309.86258871162227,None,[1 1 0 0 0 0 1 3],space,0,1.6460975943409721,0.0026074994998452894,None,309.87926110851663,None,1,311.5278745644598,None,None,312.02746054481617,None,,,,,,,,,,,,,,,,,,,,,,,,,,,,,,,,,,,,,,,,,,,,,,15_ZTY,15,23,F,2022-12-07_12h16.05.019,dynamic target,2022.1.3,120.08580947071276,
1,8,2,2,L,0,52,52,52,,,,,,,None,313.05993999938414,None,312.07743023661556,313.07660822689627,312.56035148532624,None,2,"[0.008577701887816147, 0.6004112293646813]","[0.38393338225409934, 1.1081348493632959]",313.05993999938414,None,[3 3 3 0 0 1 3 1],space,0,2.0499061003936276,0.0029692735784010438,None,313.66776342797607,None,1,315.71606892694194,None,None,316.2156542658551,None,,,,,,,,,,,,,,,,,,,,,,,,,,,,,,,,,,,,,,,,,,,,,,15_ZTY,15,23,F,2022-12-07_12h16.05.019,dynamic target,2022.1.3,120.08580947071276,
1,1,1,2,L,0,53,53,53,,,,,,,None,317.2398055400183,None,316.2489688797318,None,316.7402468530786,None,1,[0.00865050571383108],[0.5178863285318585],317.2398055400183,None,[0 2 0 2 1 0 0 3],space,0,3.7398714881078376,0.00202987971647417,None,317.2564586936105,None,1,320.99502336136857,None,None,321.49461735976746,None,,,,,,,,,,,,,,,,,,,,,,,,,,,,,,,,,,,,,,,,,,,,,,15_ZTY,15,23,F,2022-12-07_12h16.05.019,dynamic target,2022.1.3,120.08580947071276,
1,2,1,2,L,0,54,54,54,,,,,,,None,322.5270884755712,None,321.5529434554812,None,322.02750188584355,None,1,[0.008647939940374272],[0.517580360029342],322.5270884755712,None,[3 1 3 0 1 0 2 2],space,0,2.980453816085401,0.0019009495927093667,None,322.5437554201967,None,1,325.52460416527674,None,None,326.0241885420248,None,,,,,,,,,,,,,,,,,,,,,,,,,,,,,,,,,,,,,,,,,,,,,,15_ZTY,15,23,F,2022-12-07_12h16.05.019,dynamic target,2022.1.3,120.08580947071276,
1,3,3,2,L,0,55,55,55,,,,,,,None,327.0566635064888,None,326.0741970411498,327.07331858441125,326.5570842933603,None,1,[0.09147528133712512],[0.6004333591622526],327.0566635064888,None,[3 2 1 2 1 2 0 3],space,0,2.6715840650167593,0.002436234111655722,None,327.156581145156,None,1,329.82936194341937,None,None,330.3289485652194,None,,,,,,,,,,,,,,,,,,,,,,,,,,,,,,,,,,,,,,,,,,,,,,15_ZTY,15,23,F,2022-12-07_12h16.05.019,dynamic target,2022.1.3,120.08580947071276,
1,4,4,2,L,0,56,56,56,,,,,,,None,331.36143154772594,None,330.3705903973355,None,330.8618587490314,None,1,[0.008644091280075372],[0.5179139105982813],331.36143154772594,None,[0 3 1 1 0 0 3 3],space,0,3.5057898682835003,0.002043350028088753,None,331.3780792490493,None,1,334.88351997198174,None,None,335.38309312347013,None,,,,,,,,,,,,,,,,,,,,,,,,,,,,,,,,,,,,,,,,,,,,,,15_ZTY,15,23,F,2022-12-07_12h16.05.019,dynamic target,2022.1.3,120.08580947071276,
1,5,1,2,L,0,57,57,57,,,,,,,None,336.40724086969453,None,335.416412868894,336.41558187896726,335.907672240382,None,3,"[0.008714329332406123, 0.1834553786311517, 0.20868559266796183]","[0.05046491817734022, 0.19174603459691753, 0.7087122125692531]",336.40724086969453,None,[1 2 0 1 0 0 0 0],space,0,3.9978109538110402,0.002802819015641944,None,336.6154049688771,None,1,340.61208998937764,None,None,341.11168815715854,None,,,,,,,,,,,,,,,,,,,,,,,,,,,,,,,,,,,,,,,,,,,,,,15_ZTY,15,23,F,2022-12-07_12h16.05.019,dynamic target,2022.1.3,120.08580947071276,
1,6,2,2,L,0,58,58,58,,,,,,,None,342.1441506134763,None,341.170020988028,342.16912777809125,341.64456594807893,None,1,[0.4328184253333802],[0.933287961903261],342.1441506134763,None,[3 1 0 1 0 2 2 1],space,0,1.7316042448262579,0.0023692032762028248,None,342.5771297203819,None,1,344.3090204902678,None,None,344.8086112814498,None,,,,,,,,,,,,,,,,,,,,,,,,,,,,,,,,,,,,,,,,,,,,,,15_ZTY,15,23,F,2022-12-07_12h16.05.019,dynamic target,2022.1.3,120.08580947071276,
1,7,2,2,L,0,59,59,59,,,,,,,None,345.84108913240925,None,344.8669518096401,345.8660634105288,345.34149741113424,None,2,"[0.18419560431652826, 0.8253824285559404]","[0.6844079220825279, 1.3331647406257616]",345.84108913240925,None,[0 0 3 0 3 0 1 3],space,0,2.418877494583512,0.0026947358023790002,None,346.67372949305445,None,1,349.09671619464984,None,space,349.604629040452,None,4.820862056323904,,,,,,,,,,,,,,,,,,,,,,,,,,,,,,,,,,,,,,,,,,,,,15_ZTY,15,23,F,2022-12-07_12h16.05.019,dynamic target,2022.1.3,120.08580947071276,
1,8,4,2,L,0,60,60,60,,,,,,,None,355.4664332667942,None,354.4923020377373,None,354.9668489221183,None,1,[0.008664938190577232],[0.5171996633705476],355.4664332667942,None,[0 1 2 3 2 2 1 1],space,0,1.9610873569042724,0.0028339290206531587,None,355.4830941177074,None,1,357.4481283964426,None,None,357.9477086038086,None,,,,,,,,,,,,,,,,,,,,,,,,,,,,,,,,,,,,,,,,,,,,,,15_ZTY,15,23,F,2022-12-07_12h16.05.019,dynamic target,2022.1.3,120.08580947071276,
1,8,4,0,L,0,61,61,61,,,,,,,None,358.98020409446144,None,358.00600294807373,None,358.48059954431847,None,1,[0.008678087780253918],[0.5175996033315187],358.98020409446144,None,[3 0 2 3 0 0 0 2],space,0,1.8226311572254872,0.0022037108785752935,None,358.9968386461951,None,1,360.8203256094994,None,None,361.31991191057745,None,,,,,,,,,,,,,,,,,,,,,,,,,,,,,,,,,,,,,,,,,,,,,,15_ZTY,15,23,F,2022-12-07_12h16.05.019,dynamic target,2022.1.3,120.08580947071276,
1,1,2,2,L,0,62,62,62,,,,,,,None,362.344078900104,None,361.35322267579386,362.3523881579283,361.8444798022301,None,2,"[0.008761796143971878, 0.7502411827188098]","[0.45869425215391857, 1.2582787892627039]",362.344078900104,None,[0 0 3 0 0 2 2 1],space,0,3.1106151904164108,0.0026257806368903402,None,363.10176820288075,None,1,366.2158508361856,None,None,366.71544291025424,None,,,,,,,,,,,,,,,,,,,,,,,,,,,,,,,,,,,,,,,,,,,,,,15_ZTY,15,23,F,2022-12-07_12h16.05.019,dynamic target,2022.1.3,120.08580947071276,
1,2,1,2,L,0,63,63,63,,,,,,,None,367.747911781006,None,366.7570991748471,None,367.2483444345803,None,1,[0.00859053075578231],[0.5175239130098817],367.747911781006,None,[0 2 2 2 0 3 0 2],space,0,2.5429833224818594,0.0025452794895954867,None,367.7645658967633,None,1,370.3124560611268,None,None,370.8120401171531,None,,,,,,,,,,,,,,,,,,,,,,,,,,,,,,,,,,,,,,,,,,,,,,15_ZTY,15,23,F,2022-12-07_12h16.05.019,dynamic target,2022.1.3,120.08580947071276,
1,1,1,1,L,0,64,64,64,,,,,,,None,371.844514119452,None,370.87038609761225,None,371.34493009549806,None,1,[0.009368922323801598],[0.5174033216503631],371.844514119452,None,[0 2 0 1 2 2 0 1],space,0,2.303136088642532,0.002621931976364067,None,371.8611829884078,None,1,374.1675928040313,None,None,374.66717204923197,None,,,,,,,,,,,,,,,,,,,,,,,,,,,,,,,,,,,,,,,,,,,,,,15_ZTY,15,23,F,2022-12-07_12h16.05.019,dynamic target,2022.1.3,120.08580947071276,
1,2,3,2,L,0,65,65,65,,,,,,,None,375.69965214524314,None,374.7171439860831,None,375.20006683840234,None,1,[0.008731969025802755],[0.5170450755106231],375.69965214524314,None,[3 2 3 3 0 0 1 1],space,0,2.5598936948781557,0.002807950562555561,None,375.71632165564233,None,1,378.2808463717395,None,None,378.78043010704386,None,,,,,,,,,,,,,,,,,,,,,,,,,,,,,,,,,,,,,,,,,,,,,,15_ZTY,15,23,F,2022-12-07_12h16.05.019,dynamic target,2022.1.3,120.08580947071276,
1,3,2,2,L,0,66,66,66,,,,,,,None,379.8129057129513,None,378.8304052511121,None,379.31331431239823,None,1,[0.009433708107280836],[0.517630392614592],379.8129057129513,None,[1 3 2 1 2 2 0 3],space,0,3.3739033319238843,0.0023185292470770946,None,379.82955982870885,None,1,383.2017634561996,None,None,383.7013192887161,None,,,,,,,,,,,,,,,,,,,,,,,,,,,,,,,,,,,,,,,,,,,,,,15_ZTY,15,23,F,2022-12-07_12h16.05.019,dynamic target,2022.1.3,120.08580947071276,
1,4,4,2,L,0,67,67,67,,,,,,,None,384.73382443309214,None,383.74298228846465,None,384.2342384527358,None,1,[0.008725554591819673],[0.5090270329906161],384.73382443309214,None,[3 1 0 1 3 3 3 3],space,0,2.909446672971626,0.0024545152482460253,None,384.7421509778162,None,1,387.656406351829,None,None,388.15598495558623,None,,,,,,,,,,,,,,,,,,,,,,,,,,,,,,,,,,,,,,,,,,,,,,15_ZTY,15,23,F,2022-12-07_12h16.05.019,dynamic target,2022.1.3,120.08580947071276,
1,5,3,2,L,0,68,68,68,,,,,,,None,389.1884612029371,None,388.214277696243,389.21344157476915,388.6805566958992,None,2,"[0.04187021803954849, 0.11674590630832427]","[0.0679224417954174, 0.6172513637086467]",389.1884612029371,None,[0 2 1 0 3 2 0 2],space,0,2.178859636799416,0.002434309781392585,None,389.2967076634525,None,1,391.4782310145581,None,None,391.9778141084193,None,,,,,,,,,,,,,,,,,,,,,,,,,,,,,,,,,,,,,,,,,,,,,,15_ZTY,15,23,F,2022-12-07_12h16.05.019,dynamic target,2022.1.3,120.08580947071276,
1,6,4,2,L,0,69,69,69,,,,,,,None,393.01029872660655,None,392.02778027227987,None,392.50236564326497,None,1,[0.009834289511672978],[0.5164664935625751],393.01029872660655,None,[1 2 0 1 2 0 0 0],space,0,2.168779033021565,0.002875943563594774,None,393.01863008215605,None,1,395.1918220456398,None,None,395.691402894449,None,,,,,,,,,,,,,,,,,,,,,,,,,,,,,,,,,,,,,,,,,,,,,,15_ZTY,15,23,F,2022-12-07_12h16.05.019,dynamic target,2022.1.3,120.08580947071276,
1,7,1,2,L,0,70,70,70,,,,,,,None,396.7238794625216,None,395.7497405361439,None,396.22430890887904,None,1,[0.008730044695766992],[0.5175540608497613],396.7238794625216,None,[3 1 3 0 1 2 2 1],space,0,1.9828053475955585,0.002424688130076902,None,396.740532616114,None,1,398.7222200484416,None,None,399.22180731168504,None,,,,,,,,,,,,,,,,,,,,,,,,,,,,,,,,,,,,,,,,,,,,,,15_ZTY,15,23,F,2022-12-07_12h16.05.019,dynamic target,2022.1.3,120.08580947071276,
1,8,1,2,L,0,71,71,71,,,,,,,None,400.2542845212008,None,399.28015265070053,None,399.75471428827996,None,1,[0.009338774483694579],[0.5177615677903304],400.2542845212008,None,[0 3 2 3 0 2 2 1],space,0,2.132140106643874,0.0022832498602838314,None,400.27093831623665,None,1,402.4025147147115,None,None,402.9021154482661,None,,,,,,,,,,,,,,,,,,,,,,,,,,,,,,,,,,,,,,,,,,,,,,15_ZTY,15,23,F,2022-12-07_12h16.05.019,dynamic target,2022.1.3,120.08580947071276,
1,4,1,0,L,0,72,72,72,,,,,,,None,403.9345650757159,None,402.9520588408859,None,403.43498073104,None,1,[0.008562307246393175],[0.5175697762133495],403.9345650757159,None,[2 0 1 3 3 0 0 3],space,0,1.3792532906149972,0.0023236607946728327,None,403.9512140599261,None,1,405.33337256828804,None,None,405.8330143542202,None,,,,,,,,,,,,,,,,,,,,,,,,,,,,,,,,,,,,,,,,,,,,,,15_ZTY,15,23,F,2022-12-07_12h16.05.019,dynamic target,2022.1.3,120.08580947071276,
1,5,4,2,L,0,73,73,73,,,,,,,None,406.86546690023755,None,405.89133595983003,None,406.35753894844333,None,1,[0.009370846654064735],[0.516482208925936],406.86546690023755,None,[0 1 0 2 2 1 3 0],space,0,3.001412979232555,0.0028429092283204227,None,406.87379504856995,None,1,409.87963539074144,None,None,410.3792309927491,None,,,,,,,,,,,,,,,,,,,,,,,,,,,,,,,,,,,,,,,,,,,,,,15_ZTY,15,23,F,2022-12-07_12h16.05.019,dynamic target,2022.1.3,120.08580947071276,
1,6,4,2,L,0,74,74,74,,,,,,,None,411.41171044731686,None,410.4375522776372,None,410.91211808459866,None,1,[0.008659485921725718],[0.5169706680762829],411.41171044731686,None,[1 2 1 1 1 1 3 1],space,0,2.60675113536513,0.0029888376018334384,None,411.42834948915447,None,1,414.03452152170894,None,None,414.53410653990016,None,,,,,,,,,,,,,,,,,,,,,,,,,,,,,,,,,,,,,,,,,,,,,,15_ZTY,15,23,F,2022-12-07_12h16.05.019,dynamic target,2022.1.3,120.08580947071276,
1,7,4,2,L,0,75,75,75,,,,,,,None,415.566587277355,None,414.5757442026345,None,415.06699459391484,None,1,[0.008641846228101713],[0.5174924822833873],415.566587277355,None,[2 0 2 0 2 0 0 3],space,0,3.0588077311992947,0.0023188499692423648,None,415.5832208669235,None,1,418.64736199986646,None,None,419.1469466973362,None,,,,,,,,,,,,,,,,,,,,,,,,,,,,,,,,,,,,,,,,,,,,,,15_ZTY,15,23,F,2022-12-07_12h16.05.019,dynamic target,2022.1.3,120.08580947071276,
1,8,3,2,L,0,76,76,76,,,,,,,None,420.1710947642823,None,419.1802510481184,None,419.6715338322906,None,1,[0.008634790350697585],[0.5179260980228264],420.1710947642823,None,[0 0 3 0 1 1 2 2],space,0,2.6948601217306987,0.0021453395290791377,None,420.1877482385962,None,1,422.88551967178614,None,None,423.38509763409996,None,,,,,,,,,,,,,,,,,,,,,,,,,,,,,,,,,,,,,,,,,,,,,,15_ZTY,15,23,F,2022-12-07_12h16.05.019,dynamic target,2022.1.3,120.08580947071276,
1,1,4,2,L,0,77,77,77,,,,,,,None,424.40924858754147,None,423.4267301652869,424.4259017411339,423.9096613563704,None,2,"[0.008661410251761481, 0.2083635880806014]","[0.07538467360791401, 0.7088158056785687]",424.40924858754147,None,[0 2 1 2 3 2 1 2],space,0,2.3291421284734497,0.002523149692251536,None,424.61740915878545,None,1,426.94880608139647,None,None,427.44839302391796,None,,,,,,,,,,,,,,,,,,,,,,,,,,,,,,,,,,,,,,,,,,,,,,15_ZTY,15,23,F,2022-12-07_12h16.05.019,dynamic target,2022.1.3,120.08580947071276,
1,2,1,2,L,0,78,78,78,,,,,,,None,428.4808788929199,None,427.50673579716,428.5058509259875,427.9812836437063,None,2,"[0.008655957982909968, 0.8004014152807031]","[0.4081667932448454, 1.3083039979883324]",428.4808788929199,None,[0 3 2 0 0 1 3 0],space,0,1.7380266968848446,0.0025642020702889567,None,429.2885488241059,None,1,431.0287722645003,None,None,431.5283418880501,None,,,,,,,,,,,,,,,,,,,,,,,,,,,,,,,,,,,,,,,,,,,,,,15_ZTY,15,23,F,2022-12-07_12h16.05.019,dynamic target,2022.1.3,120.08580947071276,
1,3,4,2,L,0,79,79,79,,,,,,,None,432.5608271156086,None,431.5783465385148,432.5774732133234,432.06123379072505,None,2,"[0.11642133594705228, 0.134047879901118]","[0.1247960209982466, 0.6417570674234412]",432.5608271156086,None,[3 0 3 3 2 3 1 2],space,0,3.684155393523042,0.0024683062813437573,None,432.7023747517612,None,1,436.39097931729884,None,None,436.89056241116003,None,,,,,,,,,,,,,,,,,,,,,,,,,,,,,,,,,,,,,,,,,,,,,,15_ZTY,15,23,F,2022-12-07_12h16.05.019,dynamic target,2022.1.3,120.08580947071276,
1,4,3,2,L,0,80,80,80,,,,,,,None,437.9230380491396,None,436.932201356781,None,437.4234716328069,None,1,[0.008679049945385486],[0.5089683409196368],437.9230380491396,None,[0 1 3 2 1 0 2 2],space,0,2.806625861468774,0.00242981967767264,None,437.9313649145852,None,1,440.7373709415874,None,None,441.236956921944,None,,,,,,,,,,,,,,,,,,,,,,,,,,,,,,,,,,,,,,,,,,,,,,15_ZTY,15,23,F,2022-12-07_12h16.05.019,dynamic target,2022.1.3,120.08580947071276,
1,5,2,2,L,0,81,81,81,,,,,,,None,442.26943381073806,None,441.2785987540601,None,441.7698536354444,None,1,[0.008748325832584669],[0.5177753588234282],442.26943381073806,None,[2 0 1 0 1 3 3 3],space,0,1.251927416840772,0.0022742696526165673,None,442.2860876057739,None,1,443.53507027653905,None,None,444.03463380637635,None,,,,,,,,,,,,,,,,,,,,,,,,,,,,,,,,,,,,,,,,,,,,,,15_ZTY,15,23,F,2022-12-07_12h16.05.019,dynamic target,2022.1.3,120.08580947071276,
1,6,4,2,L,0,82,82,82,,,,,,,None,445.0671100537272,None,444.0845970837415,None,444.56752699193817,None,1,[0.008676804893411827],[0.5172596383285963],445.0671100537272,None,[3 3 1 3 2 2 0 1],space,0,3.366258288742074,0.0026129517684694292,None,445.0837827713433,None,1,448.4476447481179,None,None,448.94722591764884,None,,,,,,,,,,,,,,,,,,,,,,,,,,,,,,,,,,,,,,,,,,,,,,15_ZTY,15,23,F,2022-12-07_12h16.05.019,dynamic target,2022.1.3,120.08580947071276,
1,7,1,2,L,0,83,83,83,,,,,,,None,449.9797024857214,None,448.9888728813123,None,449.4801168581587,None,1,[0.009383675522030899],[0.5175691347697011],449.9797024857214,None,[2 0 2 2 0 0 3 3],space,0,2.7261413920964515,0.0023079454310845904,None,449.99632677436057,None,1,452.72743402113156,None,None,453.22702352942673,None,,,,,,,,,,,,,,,,,,,,,,,,,,,,,,,,,,,,,,,,,,,,,,15_ZTY,15,23,F,2022-12-07_12h16.05.019,dynamic target,2022.1.3,120.08580947071276,
1,6,2,1,L,0,84,84,84,,,,,,,None,454.2511587675049,None,453.260333332478,None,453.7515683291167,None,1,[0.008773021403612802],[0.5172910690553181],454.2511587675049,None,[3 1 0 2 3 1 0 2],space,0,4.21431349649265,0.002328150898165404,None,454.2678138454273,None,1,458.4809882590198,None,None,458.9805726357678,None,,,,,,,,,,,,,,,,,,,,,,,,,,,,,,,,,,,,,,,,,,,,,,15_ZTY,15,23,F,2022-12-07_12h16.05.019,dynamic target,2022.1.3,120.08580947071276,
1,5,2,1,L,0,85,85,85,,,,,,,None,460.01305144889216,None,459.0389067495239,None,459.51345587895685,None,1,[0.01659349935607679],[0.5254242506657647],460.01305144889216,None,[1 1 1 2 3 2 3 0],space,0,1.4514650644368885,0.002632515792356571,None,460.03802765134196,None,1,461.48682411108757,None,None,461.9864193923733,None,,,,,,,,,,,,,,,,,,,,,,,,,,,,,,,,,,,,,,,,,,,,,,15_ZTY,15,23,F,2022-12-07_12h16.05.019,dynamic target,2022.1.3,120.08580947071276,
1,6,2,2,L,0,86,86,86,,,,,,,None,463.01888826312506,None,462.04475607190307,463.0438660691834,462.51930231484084,None,2,"[0.008592775807983344, 0.3416266619799444]","[0.19165334602530493, 0.84204295874747]",463.01888826312506,None,[0 3 0 1 3 1 1 2],space,0,2.4971557193762237,0.0026062166130031983,None,463.36028753341907,None,1,465.85819803153845,None,None,466.35778529478165,None,,,,,,,,,,,,,,,,,,,,,,,,,,,,,,,,,,,,,,,,,,,,,,15_ZTY,15,23,F,2022-12-07_12h16.05.019,dynamic target,2022.1.3,120.08580947071276,
1,7,4,2,L,0,87,87,87,,,,,,,None,467.381935286058,None,466.39109990865836,None,466.8823557522078,None,1,[0.008611377666511544],[0.5178273157389413],467.381935286058,None,[1 1 0 3 3 0 2 2],space,0,3.3549153243495766,0.002125775504964622,None,467.39858843965044,None,1,470.75413538560997,None,None,471.2537236110183,None,,,,,,,,,,,,,,,,,,,,,,,,,,,,,,,,,,,,,,,,,,,,,,15_ZTY,15,23,F,2022-12-07_12h16.05.019,dynamic target,2022.1.3,120.08580947071276,
1,8,1,2,L,0,88,88,88,,,,,,,None,472.2861982547606,None,471.31205996982635,None,471.7866123064764,None,1,[0.009357697064160675],[0.5176198087983721],472.2861982547606,None,[1 1 2 2 1 1 3 1],space,0,2.4183136658336934,0.002335848219217951,None,472.30285589845676,None,1,474.72582496035875,None,None,475.2254276182436,None,,,,,,,,,,,,,,,,,,,,,,,,,,,,,,,,,,,,,,,,,,,,,,15_ZTY,15,23,F,2022-12-07_12h16.05.019,dynamic target,2022.1.3,120.08580947071276,
1,1,4,2,L,0,89,89,89,,,,,,,None,476.24958113745856,None,475.2587383834598,None,475.7499900576272,None,1,[0.008606246119370553],[0.5178577843005314],476.24958113745856,None,[2 1 3 0 3 1 3 0],space,0,2.294822661436001,0.00228581563374064,None,476.2662381397115,None,1,478.5643284344162,None,None,479.0639118489989,None,,,,,,,,,,,,,,,,,,,,,,,,,,,,,,,,,,,,,,,,,,,,,,15_ZTY,15,23,F,2022-12-07_12h16.05.019,dynamic target,2022.1.3,120.08580947071276,
1,2,4,2,L,0,90,90,90,,,,,,,None,480.0963864927412,None,479.1055485495681,480.1047133902591,479.5968015066221,None,2,"[0.008995922985832294, 0.49145404956038874]","[0.07518807120527526, 0.991935773555042]",480.0963864927412,None,[3 1 0 1 0 0 1 1],space,0,2.0062228425795183,0.0026847934298075415,None,480.58764618495115,None,1,482.5943143098325,None,None,483.0939009316323,None,,,,,,,,,,,,,,,,,,,,,,,,,,,,,,,,,,,,,,,,,,,,,,15_ZTY,15,23,F,2022-12-07_12h16.05.019,dynamic target,2022.1.3,120.08580947071276,
1,1,1,1,L,0,91,91,91,,,,,,,None,484.12638330476756,None,483.13553442498437,None,483.6267912306989,None,1,[0.008624847977898753],[0.5089673787545053],484.12638330476756,None,[0 3 0 2 2 0 0 0],space,0,2.107045557886522,0.0026456653822606313,None,484.1347018314491,None,1,486.2413036310827,None,None,486.74087614112767,None,,,,,,,,,,,,,,,,,,,,,,,,,,,,,,,,,,,,,,,,,,,,,,15_ZTY,15,23,F,2022-12-07_12h16.05.019,dynamic target,2022.1.3,120.08580947071276,
1,2,3,2,L,0,92,92,92,,,,,,,None,487.77335559569565,None,486.79922276303023,487.7983471927869,487.27376130864695,None,2,"[0.00985545714388536, 0.7090563469541848]","[0.2917092157456409, 1.216518899488392]",487.77335559569565,None,[3 0 1 0 0 2 0 3],space,0,1.7363339277478644,0.0027572765338845784,None,488.48943189923693,None,1,490.2296502080842,None,None,490.7292406785443,None,,,,,,,,,,,,,,,,,,,,,,,,,,,,,,,,,,,,,,,,,,,,,,15_ZTY,15,23,F,2022-12-07_12h16.05.019,dynamic target,2022.1.3,120.08580947071276,
1,3,4,2,L,0,93,93,93,,,,,,,None,491.7617114736263,None,490.77925879932036,None,491.2621332226629,None,1,[0.009111062076499366],[0.5175729834302274],491.7617114736263,None,[2 0 0 1 0 3 1 1],space,0,3.6622693446604444,0.0024933225740824128,None,491.7783678344356,None,1,495.44199138669796,None,None,495.9415760841675,None,,,,,,,,,,,,,,,,,,,,,,,,,,,,,,,,,,,,,,,,,,,,,,15_ZTY,15,23,F,2022-12-07_12h16.05.019,dynamic target,2022.1.3,120.08580947071276,
1,4,3,2,L,0,94,94,94,,,,,,,None,496.9740539351269,None,495.9915986950475,None,496.4744679868427,None,1,[0.008673918398017122],[0.5174507884621562],496.9740539351269,None,[0 1 1 1 2 1 3 2],space,0,1.2659365407316727,0.002733543127988014,None,496.99073242573354,None,1,498.25633264998214,None,None,498.7559086879659,None,,,,,,,,,,,,,,,,,,,,,,,,,,,,,,,,,,,,,,,,,,,,,,15_ZTY,15,23,F,2022-12-07_12h16.05.019,dynamic target,2022.1.3,120.08580947071276,
1,5,1,2,L,0,95,95,95,,,,,,,None,499.78838301098654,None,498.79754987863885,None,499.28881213662225,None,1,[0.008743515007381575],[0.5176717657141126],499.78838301098654,None,[0 0 1 2 3 2 1 0],space,0,1.0910428279034932,0.002267534496695589,None,499.8050384096307,None,1,500.89580136807035,None,None,501.3953876691484,None,,,,,,,,,,,,,,,,,,,,,,,,,,,,,,,,,,,,,,,,,,,,,,15_ZTY,15,23,F,2022-12-07_12h16.05.019,dynamic target,2022.1.3,120.08580947071276,
1,6,4,2,L,0,96,96,96,,,,,,,None,502.42786199216926,None,501.44535126723554,None,501.92827476099797,None,1,[0.008620037152240911],[0.5172926726636433],502.42786199216926,None,[2 2 2 3 3 0 1 0],space,0,3.092742332195712,0.0025686921742362756,None,502.44450808988404,None,1,505.54194911557784,None,None,506.04153028510854,None,,,,,,,,,,,,,,,,,,,,,,,,,,,,,,,,,,,,,,,,,,,,,,15_ZTY,15,23,F,2022-12-07_12h16.05.019,dynamic target,2022.1.3,120.08580947071276,
1,7,3,2,L,0,97,97,97,,,,,,,None,507.0740097396765,None,506.0914964489691,None,506.57442186706203,None,1,[0.00958829596720534],[0.5173128781309515],507.0740097396765,None,[2 0 2 0 3 0 2 0],space,0,2.3174620855738794,0.0024958883479939686,None,507.09065744099985,None,1,509.4137345219708,None,None,509.9133217852138,None,,,,,,,,,,,,,,,,,,,,,,,,,,,,,,,,,,,,,,,,,,,,,,15_ZTY,15,23,F,2022-12-07_12h16.05.019,dynamic target,2022.1.3,120.08580947071276,
1,8,3,2,L,0,98,98,98,,,,,,,None,510.94579739112146,None,509.95495142990535,None,510.4462111221153,None,1,[0.009508436263331532],[0.517447581245051],510.94579739112146,None,[2 0 0 2 1 0 3 3],space,0,1.3423436751218105,0.0023291130632969725,None,510.96245407265246,None,1,512.3030031097176,None,None,512.8025916558474,None,,,,,,,,,,,,,,,,,,,,,,,,,,,,,,,,,,,,,,,,,,,,,,15_ZTY,15,23,F,2022-12-07_12h16.05.019,dynamic target,2022.1.3,120.08580947071276,
1,1,4,2,L,0,99,99,99,,,,,,,None,513.835080090623,None,512.8608924145467,513.860056934516,513.3354816341923,None,1,[0.2583381227773316],[0.7586129812748368],513.835080090623,None,[3 1 2 0 1 0 0 2],space,0,2.1793759987381236,0.002584407537142397,None,514.0931853694458,None,1,516.2747103241597,None,None,516.7742937387427,None,,,,,,,,,,,,,,,,,,,,,,,,,,,,,,,,,,,,,,,,,,,,,,15_ZTY,15,23,F,2022-12-07_12h16.05.019,dynamic target,2022.1.3,120.08580947071276,
1,2,4,2,L,0,100,100,100,,,,,,,None,517.8067959645512,None,516.8159387780759,517.8150978457763,517.3071853206959,None,1,[0.650619570181334],[1.1585725061963785],517.8067959645512,None,[1 0 1 1 1 1 1 0],space,0,3.7435325263222694,0.0024740792719057936,None,518.4645689115475,None,1,522.2114511758939,None,None,522.711037797694,None,,,,,,,,,,,,,,,,,,,,,,,,,,,,,,,,,,,,,,,,,,,,,,15_ZTY,15,23,F,2022-12-07_12h16.05.019,dynamic target,2022.1.3,120.08580947071276,
1,3,2,2,L,0,101,101,101,,,,,,,None,523.7351938826826,None,522.7693757601103,None,523.2356018406861,None,1,[0.00905012495286428],[0.5175107634199776],523.7351938826826,None,[0 2 3 3 0 2 2 0],space,0,2.856647862977752,0.0024259710171463666,None,523.7518441497793,None,1,526.6078070717851,None,None,527.1073888827593,None,,,,,,,,,,,,,,,,,,,,,,,,,,,,,,,,,,,,,,,,,,,,,,15_ZTY,15,23,F,2022-12-07_12h16.05.019,dynamic target,2022.1.3,120.08580947071276,
1,4,4,2,L,0,102,102,102,,,,,,,None,528.1398648093884,None,527.157415983743,None,527.6402811061564,None,1,[0.008595662303378049],[0.5173080673052937],528.1398648093884,None,[3 1 3 3 2 2 0 0],space,0,2.994835618592788,0.0026042922827400616,None,528.1565221323629,None,1,531.1540336526866,None,None,531.6536193123213,None,,,,,,,,,,,,,,,,,,,,,,,,,,,,,,,,,,,,,,,,,,,,,,15_ZTY,15,23,F,2022-12-07_12h16.05.019,dynamic target,2022.1.3,120.08580947071276,
1,3,1,1,L,0,103,103,103,,,,,,,None,532.6860949503009,None,531.695251202065,None,532.1865182708736,None,1,[0.008627413751582935],[0.5088259404842574],532.6860949503009,None,[2 2 0 0 1 1 2 1],space,0,2.4095242876232987,0.002672926726972946,None,532.6944513221431,None,1,535.1090848270412,None,None,535.608682032657,None,,,,,,,,,,,,,,,,,,,,,,,,,,,,,,,,,,,,,,,,,,,,,,15_ZTY,15,23,F,2022-12-07_12h16.05.019,dynamic target,2022.1.3,120.08580947071276,
1,2,1,1,L,0,104,104,104,,,,,,,None,536.641146413305,None,535.6670004310497,None,536.1415643136813,None,1,[0.008651467879190022],[0.5171307082050589],536.641146413305,None,[2 3 3 1 3 2 1 3],space,0,2.222391513970706,0.002749579213286779,None,536.6577998876189,None,1,538.8809545190968,None,None,539.3805533283214,None,,,,,,,,,,,,,,,,,,,,,,,,,,,,,,,,,,,,,,,,,,,,,,15_ZTY,15,23,F,2022-12-07_12h16.05.019,dynamic target,2022.1.3,120.08580947071276,
1,3,3,2,L,0,105,105,105,,,,,,,None,540.4130180296909,None,539.4388858384689,None,539.9134324021286,None,1,[0.008602076737133757],[0.517267656371132],540.4130180296909,None,[3 3 3 3 3 1 1 2],space,0,1.474795002396604,0.002753107151875156,None,540.4296711832833,None,1,541.9034534671298,None,None,542.4030416925382,None,,,,,,,,,,,,,,,,,,,,,,,,,,,,,,,,,,,,,,,,,,,,,,15_ZTY,15,23,F,2022-12-07_12h16.05.019,dynamic target,2022.1.3,120.08580947071276,
1,4,1,2,L,0,106,106,106,,,,,,,None,543.4355099218462,None,542.4446456794938,543.4438557419446,542.9359246150054,None,3,"[0.1413696356089531, 0.1591372971115561, 0.19130728731033741]","[0.1496849871455197, 0.16632178393092545, 0.7001110979972509]",543.4355099218462,None,[0 2 2 0 0 2 2 3],space,0,3.0205696864218226,0.002623535584916681,None,543.6353567451622,None,1,546.6578380535013,None,None,547.1574249960229,None,,,,,,,,,,,,,,,,,,,,,,,,,,,,,,,,,,,,,,,,,,,,,,15_ZTY,15,23,F,2022-12-07_12h16.05.019,dynamic target,2022.1.3,120.08580947071276,
1,5,3,2,L,0,107,107,107,,,,,,,None,548.1899006019305,None,547.2157648827699,None,547.6903319726177,None,1,[0.00816365017226417],[0.5169119760048488],548.1899006019305,None,[2 3 0 1 2 0 3 0],space,0,1.0896791192312776,0.002628987853313447,None,548.2065540762444,None,1,549.2973128653018,None,None,549.7969065429791,None,,,,,,,,,,,,,,,,,,,,,,,,,,,,,,,,,,,,,,,,,,,,,,15_ZTY,15,23,F,2022-12-07_12h16.05.019,dynamic target,2022.1.3,120.08580947071276,
1,6,2,2,L,0,108,108,108,,,,,,,None,550.8293805773503,None,549.8552483540559,None,550.321463530094,None,1,[0.00838398598079948],[0.5160303120496792],550.8293805773503,None,[3 3 2 1 1 0 0 3],space,0,6.7458693046346525,0.003031814309906622,None,550.8377080842395,None,1,557.5821086040653,None,None,558.081690735761,None,,,,,,,,,,,,,,,,,,,,,,,,,,,,,,,,,,,,,,,,,,,,,,15_ZTY,15,23,F,2022-12-07_12h16.05.019,dynamic target,2022.1.3,120.08580947071276,
1,7,3,2,L,0,109,109,109,,,,,,,None,559.114171473216,None,558.1316536924048,559.1308294376338,558.6145842420449,None,2,"[0.0077483155696427275, 0.24078438264905344]","[0.09118823541484744, 0.7415361543157815]",559.114171473216,None,[0 3 2 1 1 0 1 2],space,0,2.3230285314130015,0.0022643272795903613,None,559.3556396345309,None,1,561.6787289029264,None,None,562.1782933949291,None,,,,,,,,,,,,,,,,,,,,,,,,,,,,,,,,,,,,,,,,,,,,,,15_ZTY,15,23,F,2022-12-07_12h16.05.019,dynamic target,2022.1.3,120.08580947071276,
1,8,4,2,L,0,110,110,110,,,,,,,None,563.202451404248,None,562.2116064051972,None,562.7028580793642,None,1,[0.008646336331821658],[0.5176056970435639],563.202451404248,None,[0 1 3 3 3 3 0 3],space,0,2.620060765226299,0.0022922300677237217,None,563.2191007091799,None,1,565.8419239709963,None,None,566.3415320811503,None,,,,,,,,,,,,,,,,,,,,,,,,,,,,,,,,,,,,,,,,,,,,,,15_ZTY,15,23,F,2022-12-07_12h16.05.019,dynamic target,2022.1.3,120.08580947071276,
1,1,3,2,L,0,111,111,111,,,,,,,None,567.3656564467626,None,566.3748226408995,None,566.8660723907362,None,1,[0.00866525891206038],[0.5091094584677194],567.3656564467626,None,[3 1 3 3 3 0 3 1],space,0,2.5453233080106656,0.0024198773048738076,None,567.373994216746,None,1,569.9218718729633,None,None,570.4214588154848,None,,,,,,,,,,,,,,,,,,,,,,,,,,,,,,,,,,,,,,,,,,,,,,15_ZTY,15,23,F,2022-12-07_12h16.05.019,dynamic target,2022.1.3,120.08580947071276,
1,2,4,2,L,0,112,112,112,,,,,,,None,571.4539434015999,None,570.4714323559444,None,570.9543484731082,None,1,[0.00857802260952667],[0.5174427704196205],571.4539434015999,None,[1 3 0 1 3 3 0 1],space,0,2.8803245010958562,0.00209883488196283,None,571.4705920650883,None,1,574.3515353589262,None,None,574.8511136419618,None,,,,,,,,,,,,,,,,,,,,,,,,,,,,,,,,,,,,,,,,,,,,,,15_ZTY,15,23,F,2022-12-07_12h16.05.019,dynamic target,2022.1.3,120.08580947071276,
1,3,4,2,L,0,113,113,113,,,,,,,None,575.883596624468,None,574.8927554740778,None,575.3840071482452,None,1,[0.008978604013918812],[0.5174895957879926],575.883596624468,None,[1 3 0 0 0 3 3 0],space,0,2.899101794512262,0.0025494488718322827,None,575.9002680591973,None,1,578.7978410939429,None,None,579.29744792121,None,,,,,,,,,,,,,,,,,,,,,,,,,,,,,,,,,,,,,,,,,,,,,,15_ZTY,15,23,F,2022-12-07_12h16.05.019,dynamic target,2022.1.3,120.08580947071276,
1,4,1,2,L,0,114,114,114,,,,,,,None,580.3299196784571,None,579.3390640955902,None,579.830320901305,None,1,[0.008812790894808131],[0.5178141661494919],580.3299196784571,None,[2 2 0 1 0 0 3 2],space,0,4.131527207473937,0.0021155124109100143,None,580.3465583995728,None,1,584.4764631965434,None,None,584.9760668165934,None,,,,,,,,,,,,,,,,,,,,,,,,,,,,,,,,,,,,,,,,,,,,,,15_ZTY,15,23,F,2022-12-07_12h16.05.019,dynamic target,2022.1.3,120.08580947071276,
1,5,3,2,L,0,115,115,115,,,,,,,None,586.0085254242506,None,585.034393874472,None,585.5089404381313,None,2,"[0.008648260662084795, 0.025161900314742525]","[0.01689273270267222, 0.525223158159406]",586.0085254242506,None,[1 0 2 3 3 3 2 0],space,0,1.2300278976667869,0.0032104562965287187,None,586.0335045131958,None,1,587.2658221636655,None,None,587.7654097476304,None,,,,,,,,,,,,,,,,,,,,,,,,,,,,,,,,,,,,,,,,,,,,,,15_ZTY,15,23,F,2022-12-07_12h16.05.019,dynamic target,2022.1.3,120.08580947071276,
1,6,4,2,L,0,116,116,116,,,,,,,None,588.7978933715801,None,587.823753162316,588.822866687535,588.2982974809236,None,1,[0.09971943265600203],[0.600174536749364],588.7978933715801,None,[0 3 3 3 3 1 2 0],space,0,2.8290135190713954,0.0024978126780297316,None,588.8977956156061,None,1,591.7287816937185,None,None,592.2283776164475,None,,,,,,,,,,,,,,,,,,,,,,,,,,,,,,,,,,,,,,,,,,,,,,15_ZTY,15,23,F,2022-12-07_12h16.05.019,dynamic target,2022.1.3,120.08580947071276,
1,7,2,2,L,0,117,117,117,,,,,,,None,593.2525157410212,None,592.2699998845399,593.2691801198728,592.7529413387181,None,1,[0.11634596634758054],[0.6165140245188923],593.2525157410212,None,[3 1 1 1 1 0 2 0],space,0,4.19812795514008,0.0027794063316832762,None,593.369101927922,None,1,597.565612604106,None,None,598.065191849307,None,,,,,,,,,,,,,,,,,,,,,,,,,,,,,,,,,,,,,,,,,,,,,,15_ZTY,15,23,F,2022-12-07_12h16.05.019,dynamic target,2022.1.3,120.08580947071276,
1,8,4,2,L,0,118,118,118,,,,,,,None,599.0893421613048,None,598.1068718473055,None,598.5897626274548,None,1,[0.008629017359908175],[0.5175784356988515],599.0893421613048,None,[2 3 2 1 3 0 3 0],space,0,2.188235935722332,0.0023974267855919607,None,599.1060123131476,None,1,601.2958449220775,None,None,601.7954270537732,None,,,,,,,,,,,,,,,,,,,,,,,,,,,,,,,,,,,,,,,,,,,,,,15_ZTY,15,23,F,2022-12-07_12h16.05.019,dynamic target,2022.1.3,120.08580947071276,
1,1,4,2,L,0,119,119,119,,,,,,,None,602.8279119606102,None,601.8454012356763,602.8445599826553,602.3283250501606,None,1,[0.04151068901319377],[0.5415222349943178],602.8279119606102,None,[2 3 3 3 2 2 3 1],space,0,2.5692485054473764,0.0029580483187601203,None,602.8695381094351,None,1,605.4424041555269,None,space,605.9503240572064,None,3.6214385856533227,,,,,,,,,,,,,,,,,,,,,,,,,,,,,,,,,,,,,,,,,,,,,15_ZTY,15,23,F,2022-12-07_12h16.05.019,dynamic target,2022.1.3,120.08580947071276,
1,2,3,2,L,0,120,120,120,,,,,,,None,610.6131140537684,None,609.6306440604906,None,610.1135281054842,None,1,[0.009029598764300317],[0.5176605404544716],610.6131140537684,None,[1 3 2 1 2 0 0 1],space,0,2.9355983204545737,0.002104287151269091,None,610.6297688109692,None,1,613.5689939729975,None,None,614.0685821984059,None,,,,,,,,,,,,,,,,,,,,,,,,,,,,,,,,,,,,,,,,,,,,,,15_ZTY,15,23,F,2022-12-07_12h16.05.019,dynamic target,2022.1.3,120.08580947071276,
1,3,1,2,L,0,121,121,121,,,,,,,None,615.1010799341109,None,614.1185432307195,615.117710637184,614.6014705731425,None,1,[0.12475079923842713],[0.6250914056849979],615.1010799341109,None,[1 2 0 2 1 2 1 1],space,0,2.35576748190897,0.00257927599022878,None,615.2259551733694,None,1,617.5823302227602,None,None,618.0819213346642,None,,,,,,,,,,,,,,,,,,,,,,,,,,,,,,,,,,,,,,,,,,,,,,15_ZTY,15,23,F,2022-12-07_12h16.05.019,dynamic target,2022.1.3,120.08580947071276,
1,4,4,2,L,0,122,122,122,,,,,,,None,619.1144027456342,None,618.1318814048125,None,618.6064873019861,None,1,[0.008652750766032113],[0.5164806053176108],619.1144027456342,None,[1 2 0 2 0 1 0 0],space,0,2.3316880173342724,0.002834570464074204,None,619.1227235173676,None,1,621.4541197985352,None,None,621.9537060996133,None,,,,,,,,,,,,,,,,,,,,,,,,,,,,,,,,,,,,,,,,,,,,,,15_ZTY,15,23,F,2022-12-07_12h16.05.019,dynamic target,2022.1.3,120.08580947071276,
1,3,2,1,L,0,123,123,123,,,,,,,None,622.986180743356,None,621.9953456866781,622.9945150174728,622.4865957572367,None,1,[0.08305377091755872],[0.5831233675266958],622.986180743356,None,[0 0 3 0 0 2 2 3],space,0,3.2174536826651092,0.0028839616056757222,None,623.0694641510111,None,1,626.2917807366846,None,None,626.7913603026075,None,,,,,,,,,,,,,,,,,,,,,,,,,,,,,,,,,,,,,,,,,,,,,,15_ZTY,15,23,F,2022-12-07_12h16.05.019,dynamic target,2022.1.3,120.08580947071276,
1,4,3,2,L,0,124,124,124,,,,,,,None,627.8238365499581,None,626.8413187691469,None,627.3242483566221,None,1,[0.007723940720552491],[0.516733334017772],627.8238365499581,None,[1 2 1 3 0 2 1 0],space,0,1.7407534727844904,0.0022688173839924275,None,627.8404938729325,None,1,629.5807099367278,None,None,630.0803042558484,None,,,,,,,,,,,,,,,,,,,,,,,,,,,,,,,,,,,,,,,,,,,,,,15_ZTY,15,23,F,2022-12-07_12h16.05.019,dynamic target,2022.1.3,120.08580947071276,
1,5,3,2,L,0,125,125,125,,,,,,,None,631.1127724851569,None,630.1219448050781,631.121100024118,630.6131849332639,None,2,"[0.008949739060881257, 0.7332801362936152]","[0.05976392317052159, 1.2333965582711244]",631.1127724851569,None,[2 1 2 3 1 3 0 3],space,0,2.199830666649632,0.0023332824457611423,None,631.8455016215687,None,1,634.0436749190496,None,None,634.5432599372409,None,,,,,,,,,,,,,,,,,,,,,,,,,,,,,,,,,,,,,,,,,,,,,,15_ZTY,15,23,F,2022-12-07_12h16.05.019,dynamic target,2022.1.3,120.08580947071276,
1,6,3,2,L,0,126,126,126,,,,,,,None,635.5674211858493,None,634.5765674952402,None,635.067823980233,None,1,[0.008640242619549099],[0.5088208089368891],635.5674211858493,None,[3 0 0 2 2 0 2 2],space,0,1.0461793142303577,0.002648872599365859,None,635.5757381089222,None,1,636.624869145546,None,None,637.1244589745627,None,,,,,,,,,,,,,,,,,,,,,,,,,,,,,,,,,,,,,,,,,,,,,,15_ZTY,15,23,F,2022-12-07_12h16.05.019,dynamic target,2022.1.3,120.08580947071276,
1,7,3,2,L,0,127,127,127,,,,,,,None,638.1569316939751,None,637.1827985405878,638.181909500033,637.6573457456905,None,3,"[0.30871804970411176, 0.7504355400697023, 0.7671932489365645]","[0.6172167257650472, 0.7589045173008344, 1.2750146890539327]",638.1569316939751,None,[0 0 0 1 0 2 0 2],space,0,1.4658343587980198,0.0024262917386295157,None,638.9312860170469,None,1,640.3967378754367,None,None,640.8963225729065,None,,,,,,,,,,,,,,,,,,,,,,,,,,,,,,,,,,,,,,,,,,,,,,15_ZTY,15,23,F,2022-12-07_12h16.05.019,dynamic target,2022.1.3,120.08580947071276,
1,8,1,2,L,0,128,128,128,,,,,,,None,641.9287997824224,None,640.9546631010965,None,641.4292141548597,None,1,[0.03347372391272074],[0.5342120252680616],641.9287997824224,None,[1 3 3 3 3 2 3 0],space,0,3.6034858677294324,0.0023393761580337014,None,641.962120842805,None,1,645.5674593196593,None,None,646.067032471148,None,,,,,,,,,,,,,,,,,,,,,,,,,,,,,,,,,,,,,,,,,,,,,,15_ZTY,15,23,F,2022-12-07_12h16.05.019,dynamic target,2022.1.3,120.08580947071276,
1,1,2,2,L,0,129,129,129,,,,,,,None,647.0995112842722,None,646.1170480261501,647.116161872091,646.5999432964034,None,2,"[0.008603680345458997, 1.0421656027256176]","[0.45823369579147766, 1.5495473333912742]",647.0995112842722,None,[1 2 2 3 3 1 1 1],space,0,2.472857522602226,0.0026626636322362174,None,648.1486468109999,None,1,650.6215984256412,None,None,651.1211741429031,None,,,,,,,,,,,,,,,,,,,,,,,,,,,,,,,,,,,,,,,,,,,,,,15_ZTY,15,23,F,2022-12-07_12h16.05.019,dynamic target,2022.1.3,120.08580947071276,
1,2,2,2,L,0,130,130,130,,,,,,,None,652.1536503902541,None,651.1711364581035,None,651.6540737428993,None,1,[0.009421520682735718],[0.5176682377750694],652.1536503902541,None,[2 1 1 2 0 3 2 3],space,0,2.7066427955746803,0.0022412353177969635,None,652.1703086753935,None,1,654.8763912907382,None,None,655.3759981180049,None,,,,,,,,,,,,,,,,,,,,,,,,,,,,,,,,,,,,,,,,,,,,,,15_ZTY,15,23,F,2022-12-07_12h16.05.019,dynamic target,2022.1.3,120.08580947071276,
1,3,3,2,L,0,131,131,131,,,,,,,None,656.408452877002,None,655.4176149338284,None,655.9088675701612,None,1,[0.008687388709404331],[0.5175700969348327],656.408452877002,None,[0 2 2 3 2 3 0 3],space,0,2.436001788354588,0.0023797870926500764,None,656.4251108414198,None,1,658.8647497344425,None,None,659.3643360355206,None,,,,,,,,,,,,,,,,,,,,,,,,,,,,,,,,,,,,,,,,,,,,,,15_ZTY,15,23,F,2022-12-07_12h16.05.019,dynamic target,2022.1.3,120.08580947071276,
1,4,3,2,L,0,132,132,132,,,,,,,None,660.3968100378195,None,659.4142932191733,660.4134657571851,659.8972244102567,None,2,"[0.0747579834046519, 0.10803959501845384]","[0.10006581209290744, 0.6084337619886355]",660.3968100378195,None,[2 3 2 1 2 1 2 3],space,0,1.6521088811791742,0.0025946706318791257,None,660.505057139778,None,1,662.1620144914893,None,None,662.6615988682372,None,,,,,,,,,,,,,,,,,,,,,,,,,,,,,,,,,,,,,,,,,,,,,,15_ZTY,15,23,F,2022-12-07_12h16.05.019,dynamic target,2022.1.3,120.08580947071276,
1,1,2,0,L,0,133,133,133,,,,,,,None,663.6940747948663,None,662.7032365309713,None,663.194493336686,None,1,[0.008700217577370495],[0.51766567200184],663.6940747948663,None,[0 0 2 3 1 2 2 0],space,0,4.046161995258444,0.002179977472678729,None,663.710729552067,None,1,667.7573759576751,None,None,668.256956165041,None,,,,,,,,,,,,,,,,,,,,,,,,,,,,,,,,,,,,,,,,,,,,,,15_ZTY,15,23,F,2022-12-07_12h16.05.019,dynamic target,2022.1.3,120.08580947071276,
1,6,1,0,L,0,134,134,134,,,,,,,None,669.289441392599,None,668.3153056734384,669.3144182364924,668.7898477469942,None,3,"[0.00861522632658307, 0.6252145628177459, 0.650451512010477]","[0.508410605881636, 0.6340238257735109, 1.1580166954886408]",669.289441392599,None,[0 3 1 1 0 3 2 0],space,0,2.7545855582970944,0.0030013457480890793,None,669.9472207540296,None,1,672.7032653959243,None,None,673.2028526591678,None,,,,,,,,,,,,,,,,,,,,,,,,,,,,,,,,,,,,,,,,,,,,,,15_ZTY,15,23,F,2022-12-07_12h16.05.019,dynamic target,2022.1.3,120.08580947071276,
1,5,2,1,L,0,135,135,135,,,,,,,None,674.2353298686837,None,673.2611784341595,674.2603102405153,673.7274176643248,None,2,"[0.3749624755610057, 0.8753123829364995]","[0.7256985960088969, 1.3832111169840573]",674.2353298686837,None,[0 3 0 2 3 0 1 1],space,0,3.366742257788246,0.0024843423666425224,None,675.1096079241349,None,1,678.4818054579134,None,None,678.9813930418784,None,,,,,,,,,,,,,,,,,,,,,,,,,,,,,,,,,,,,,,,,,,,,,,15_ZTY,15,23,F,2022-12-07_12h16.05.019,dynamic target,2022.1.3,120.08580947071276,
1,8,2,0,L,0,136,136,136,,,,,,,None,680.0138692892294,None,679.023030383891,None,679.514281416615,None,1,[0.00867263551117503],[0.5177445695403549],680.0138692892294,None,[2 1 0 2 1 3 0 0],space,0,2.813358451412114,0.002010636414979672,None,680.030517631996,None,1,682.8448540844549,None,None,683.3444551387313,None,,,,,,,,,,,,,,,,,,,,,,,,,,,,,,,,,,,,,,,,,,,,,,15_ZTY,15,23,F,2022-12-07_12h16.05.019,dynamic target,2022.1.3,120.08580947071276,
1,1,2,2,L,0,137,137,137,,,,,,,None,684.3769156707187,None,683.4027914975393,684.401894438942,683.8773294017126,None,3,"[0.008663013860314095, 0.42483020993131504, 0.441483684245668]","[0.25827461988046707, 0.4333469746961782, 0.9420224967029753]",684.3769156707187,None,[2 3 2 3 0 3 2 1],space,0,3.4019382572341783,0.00217965675119558,None,684.8182175057602,None,1,688.2237242332183,None,None,688.7233140622354,None,,,,,,,,,,,,,,,,,,,,,,,,,,,,,,,,,,,,,,,,,,,,,,15_ZTY,15,23,F,2022-12-07_12h16.05.019,dynamic target,2022.1.3,120.08580947071276,
1,8,2,1,L,0,138,138,138,,,,,,,None,689.7557838951523,None,688.7816565147557,None,689.2562005126413,None,1,[0.008646336331821658],[0.5176291097282046],689.7557838951523,None,[2 1 0 1 2 3 1 0],space,0,2.4953548670264354,0.0018496341203899647,None,689.7724399352398,None,1,692.2703513955241,None,None,692.7699665615553,None,,,,,,,,,,,,,,,,,,,,,,,,,,,,,,,,,,,,,,,,,,,,,,15_ZTY,15,23,F,2022-12-07_12h16.05.019,dynamic target,2022.1.3,120.08580947071276,
1,1,2,2,L,0,139,139,139,,,,,,,None,693.8024280557081,None,692.828292657269,693.8274058617665,693.3028427488673,None,1,[0.10878238647728722],[0.6167446234212548],693.8024280557081,None,[2 3 2 0 0 2 0 2],space,0,2.2214960589817565,0.002646627547164826,None,693.9190043002366,None,1,696.1421611767662,None,None,696.6417410634106,None,,,,,,,,,,,,,,,,,,,,,,,,,,,,,,,,,,,,,,,,,,,,,,15_ZTY,15,23,F,2022-12-07_12h16.05.019,dynamic target,2022.1.3,120.08580947071276,
1,2,3,2,L,0,140,140,140,,,,,,,None,697.6742266116905,None,696.691762070682,None,697.174630400312,None,1,[0.008763399752751866],[0.517197097596636],697.6742266116905,None,[3 0 1 3 0 0 1 2],space,0,2.7695546022382587,0.0025965949621422624,None,697.6908717472404,None,1,700.4635705048929,None,None,700.9631535987539,None,,,,,,,,,,,,,,,,,,,,,,,,,,,,,,,,,,,,,,,,,,,,,,15_ZTY,15,23,F,2022-12-07_12h16.05.019,dynamic target,2022.1.3,120.08580947071276,
1,1,2,1,L,0,141,141,141,,,,,,,None,701.9956324118782,None,701.0131784546859,702.0122874898009,701.4960471050374,None,4,"[0.03320463840555021, 0.05810867847276313, 0.2334228574509325, 0.24971231263452864]","[0.0497833845633977, 0.07512553047399706, 0.24132191221997346, 0.749875239258472]",701.9956324118782,None,[2 2 0 3 2 3 0 1],space,0,2.3750078974612734,0.0026674744576666853,None,702.2454268292684,None,1,704.6184582394687,None,None,705.1180410126083,None,,,,,,,,,,,,,,,,,,,,,,,,,,,,,,,,,,,,,,,,,,,,,,15_ZTY,15,23,F,2022-12-07_12h16.05.019,dynamic target,2022.1.3,120.08580947071276,
1,2,3,2,L,0,142,142,142,,,,,,,None,706.1505169392374,None,705.1680010827565,706.1671784315938,705.6509313116746,None,1,[0.06616328326663279],[0.5665035689912656],706.1505169392374,None,[1 2 3 3 0 3 3 2],space,0,1.6353482858171446,0.002537902890253463,None,706.2171340437105,None,1,707.8490917802876,None,None,708.3486931552859,None,,,,,,,,,,,,,,,,,,,,,,,,,,,,,,,,,,,,,,,,,,,,,,15_ZTY,15,23,F,2022-12-07_12h16.05.019,dynamic target,2022.1.3,120.08580947071276,
1,1,4,1,L,0,143,143,143,,,,,,,None,709.3811703648014,None,708.3986573948162,None,708.8815837750738,None,1,[0.00857609827971828],[0.5175011417695714],709.3811703648014,None,[3 3 2 0 2 3 2 0],space,0,2.1177467581551355,0.002419556582935911,None,709.3978244805592,None,1,711.5210624355348,None,None,712.0206580375423,None,,,,,,,,,,,,,,,,,,,,,,,,,,,,,,,,,,,,,,,,,,,,,,15_ZTY,15,23,F,2022-12-07_12h16.05.019,dynamic target,2022.1.3,120.08580947071276,
1,2,2,2,L,0,144,144,144,,,,,,,None,713.0531243425205,None,712.0622918516162,713.0614627860193,712.5535355077407,None,2,"[0.0748679909479506, 0.09136912245412532]","[0.08310668999820336, 0.591422682978191]",713.0531243425205,None,[2 3 0 0 3 0 3 0],space,0,2.099986473251647,0.0032027589763856668,None,713.1447131593397,None,1,715.2429745911438,None,None,715.742565061604,None,,,,,,,,,,,,,,,,,,,,,,,,,,,,,,,,,,,,,,,,,,,,,,15_ZTY,15,23,F,2022-12-07_12h16.05.019,dynamic target,2022.1.3,120.08580947071276,
1,3,3,2,L,0,145,145,145,,,,,,,None,716.7750384224598,None,715.7841905369135,716.7833682064727,716.2754550399488,None,2,"[0.008669428294069803, 0.5671770845628998]","[0.4252160381374779, 1.0750010904534975]",716.7750384224598,None,[0 2 1 0 1 1 3 1],space,0,3.013196935963606,0.0013913228108322073,None,717.3495532988152,None,1,720.3637436304668,None,None,720.863308443191,None,,,,,,,,,,,,,,,,,,,,,,,,,,,,,,,,,,,,,,,,,,,,,,15_ZTY,15,23,F,2022-12-07_12h16.05.019,dynamic target,2022.1.3,120.08580947071276,
1,4,4,2,L,0,146,146,146,,,,,,,None,721.8957885392022,None,720.904929428397,721.904114474555,721.3962000251443,None,1,[0.04978723322392398],[0.5502189246331],721.8957885392022,None,[3 1 0 0 0 0 1 1],space,0,1.9059825578815435,0.002775236949673854,None,721.9457454342057,None,1,723.8524965618633,None,None,724.3520809386112,None,,,,,,,,,,,,,,,,,,,,,,,,,,,,,,,,,,,,,,,,,,,,,,15_ZTY,15,23,F,2022-12-07_12h16.05.019,dynamic target,2022.1.3,120.08580947071276,
1,5,2,2,L,0,147,147,147,,,,,,,None,725.3845581481271,None,724.3937211671189,725.39287093389,724.8849821422157,None,1,[0.3249741498311778],[0.8253493942211207],725.3845581481271,None,[2 3 0 0 0 3 1 2],space,0,1.5341570612758915,0.002635723009461799,None,725.7092968882296,None,1,727.2413543051114,None,None,727.7409406061895,None,,,,,,,,,,,,,,,,,,,,,,,,,,,,,,,,,,,,,,,,,,,,,,15_ZTY,15,23,F,2022-12-07_12h16.05.019,dynamic target,2022.1.3,120.08580947071276,
1,6,4,2,L,0,148,148,148,,,,,,,None,728.773421343644,None,727.790898431286,None,728.2738392440203,None,1,[0.008883028946911509],[0.5172849753425908],728.773421343644,None,[2 2 2 2 0 2 3 2],space,0,2.9019061850640355,0.0026713231181929586,None,728.7900674413593,None,1,731.6960109917738,None,None,732.1955847847059,None,,,,,,,,,,,,,,,,,,,,,,,,,,,,,,,,,,,,,,,,,,,,,,15_ZTY,15,23,F,2022-12-07_12h16.05.019,dynamic target,2022.1.3,120.08580947071276,
1,5,2,1,L,0,149,149,149,,,,,,,None,733.2280587870048,None,732.2539224264008,None,732.7284644999561,None,1,[0.008664617468639335],[0.5172830510127824],733.2280587870048,None,[3 2 2 0 3 0 3 2],space,0,2.5113797268068083,0.0028239866478543263,None,733.244705526163,None,1,735.7592848932379,None,None,736.2588689492643,None,,,,,,,,,,,,,,,,,,,,,,,,,,,,,,,,,,,,,,,,,,,,,,15_ZTY,15,23,F,2022-12-07_12h16.05.019,dynamic target,2022.1.3,120.08580947071276,
1,6,4,2,L,0,150,150,150,,,,,,,None,737.2913464795017,None,736.3088309437428,737.3080031610332,736.783432350813,None,2,"[0.008656920148041536, 0.36657239586793366]","[0.20010243851129417, 0.8669700907767037]",737.2913464795017,None,[1 0 3 3 2 2 2 0],space,0,3.513629910259624,0.0026395716699880722,None,737.6493976205013,None,1,741.1631424697109,None,None,741.6627197905816,None,,,,,,,,,,,,,,,,,,,,,,,,,,,,,,,,,,,,,,,,,,,,,,15_ZTY,15,23,F,2022-12-07_12h16.05.019,dynamic target,2022.1.3,120.08580947071276,
1,7,1,2,L,0,151,151,151,,,,,,,None,742.6952236199984,None,741.7043632263064,742.7035248597801,742.1956104103699,None,1,[0.1496984574569069],[0.6500153304973537],742.6952236199984,None,[0 2 0 1 3 1 0 2],space,0,1.8384318325374807,0.0027431647786215763,None,742.8450757031503,None,1,744.6852110092211,None,None,745.1848050076203,None,,,,,,,,,,,,,,,,,,,,,,,,,,,,,,,,,,,,,,,,,,,,,,15_ZTY,15,23,F,2022-12-07_12h16.05.019,dynamic target,2022.1.3,120.08580947071276,
1,8,3,2,L,0,152,152,152,,,,,,,None,746.2172745198152,None,745.243097748277,746.242252967317,745.7176872886441,None,2,"[0.008615226327037817, 0.44151158703380133]","[0.3086288890713149, 0.9420170444341238]",746.2172745198152,None,[2 3 3 1 1 3 0 2],space,0,1.4322070091907335,0.002664587962499354,None,746.6585757134133,None,1,748.0907251132787,None,None,748.590305962088,None,,,,,,,,,,,,,,,,,,,,,,,,,,,,,,,,,,,,,,,,,,,,,,15_ZTY,15,23,F,2022-12-07_12h16.05.019,dynamic target,2022.1.3,120.08580947071276,
1,4,3,0,L,0,153,153,153,,,,,,,None,749.6227825301605,None,748.6319372103883,None,749.1231956197114,None,1,[0.00908540434011229],[0.5177240433508814],749.6227825301605,None,[2 0 3 1 2 2 0 0],space,0,3.2190851939571985,0.002225519953753974,None,749.6394385702481,None,1,752.8617782478843,None,None,753.3613584552502,None,,,,,,,,,,,,,,,,,,,,,,,,,,,,,,,,,,,,,,,,,,,,,,15_ZTY,15,23,F,2022-12-07_12h16.05.019,dynamic target,2022.1.3,120.08580947071276,
1,3,4,1,L,0,154,154,154,,,,,,,None,754.3938228358982,None,753.4029861756119,754.4021503748593,753.8942388119442,None,1,[0.0498510568418169],[0.5504950660174472],754.3938228358982,None,[3 2 0 1 1 0 1 1],space,0,3.743094420478883,0.0021578476753347786,None,754.4437839002837,None,1,758.1906866908191,None,None,758.6902646531332,None,,,,,,,,,,,,,,,,,,,,,,,,,,,,,,,,,,,,,,,,,,,,,,15_ZTY,15,23,F,2022-12-07_12h16.05.019,dynamic target,2022.1.3,120.08580947071276,
1,3,4,0,L,0,155,155,155,,,,,,,None,759.7227434662575,None,758.7318965428765,759.7310703637752,759.2231562350864,None,2,"[0.20011526737926033, 0.7587367798514606]","[0.6426534845768401, 1.2662785506458931]",759.7227434662575,None,[3 3 0 0 3 3 0 0],space,0,2.834174572680695,0.0031498398957410245,None,760.4887766648019,None,1,763.3197582528107,None,None,763.8193429502805,None,,,,,,,,,,,,,,,,,,,,,,,,,,,,,,,,,,,,,,,,,,,,,,15_ZTY,15,23,F,2022-12-07_12h16.05.019,dynamic target,2022.1.3,120.08580947071276,
1,4,1,2,L,0,156,156,156,,,,,,,None,764.8518127831974,None,763.8609741985804,None,764.3522258727478,None,1,[0.008663334582251991],[0.5173574584473499],764.8518127831974,None,[3 2 0 1 3 0 1 2],space,0,1.3344317914848034,0.0027906315913241997,None,764.8684668989547,None,1,766.2006948114924,None,None,766.7002779053535,None,,,,,,,,,,,,,,,,,,,,,,,,,,,,,,,,,,,,,,,,,,,,,,15_ZTY,15,23,F,2022-12-07_12h16.05.019,dynamic target,2022.1.3,120.08580947071276,
1,2,1,0,L,0,157,157,157,,,,,,,None,767.7327563977562,None,766.7502437484925,767.7494101927921,767.2331701287505,None,1,[0.7329799407821156],[1.2331162475047677],767.7327563977562,None,[1 2 3 3 1 3 0 1],space,0,1.9608647760437634,0.0022595164546146407,None,768.465481364786,None,1,770.4305191714604,None,None,770.9301041896517,None,,,,,,,,,,,,,,,,,,,,,,,,,,,,,,,,,,,,,,,,,,,,,,15_ZTY,15,23,F,2022-12-07_12h16.05.019,dynamic target,2022.1.3,120.08580947071276,
1,3,1,2,L,0,158,158,158,,,,,,,None,771.9625775505071,None,770.9800607318609,771.9792329491513,771.4629944887181,None,1,[0.6839229908709967],[1.1915802214775795],771.9625775505071,None,[2 3 0 1 0 2 0 3],space,0,2.028949503019703,0.0025452794898228603,None,772.6536750858252,None,1,774.6853203753215,None,None,775.1849069971211,None,,,,,,,,,,,,,,,,,,,,,,,,,,,,,,,,,,,,,,,,,,,,,,15_ZTY,15,23,F,2022-12-07_12h16.05.019,dynamic target,2022.1.3,120.08580947071276,
1,4,3,2,L,0,159,159,159,,,,,,,None,776.2173829237502,None,775.2432555433536,776.2423636163037,775.7177979376308,None,2,"[0.06648560857593111, 0.09143551184615717]","[0.07477241588139805, 0.5916471881687357]",776.2173829237502,None,[3 1 1 0 3 0 0 2],space,0,2.645985983189348,0.002907374290316511,None,776.3089804000554,None,1,778.9567779399915,None,None,779.4563677690087,None,,,,,,,,,,,,,,,,,,,,,,,,,,,,,,,,,,,,,,,,,,,,,,15_ZTY,15,23,F,2022-12-07_12h16.05.019,dynamic target,2022.1.3,120.08580947071276,
1,5,4,2,L,0,160,160,160,,,,,,,None,780.4888401676988,None,779.5063310463736,780.5055019807771,779.9892532572496,None,3,"[0.008725233870336524, 0.608871867832022, 0.6250695966091371]","[0.4498426539335014, 0.6169460366495514, 1.1252299574593962]",780.4888401676988,None,[3 1 3 0 3 2 2 2],space,0,1.0407299318121659,0.0026507969291742484,None,781.113321239987,None,1,782.1541208889892,None,None,782.6537132837796,None,,,,,,,,,,,,,,,,,,,,,,,,,,,,,,,,,,,,,,,,,,,,,,15_ZTY,15,23,F,2022-12-07_12h16.05.019,dynamic target,2022.1.3,120.08580947071276,
1,6,4,2,L,0,161,161,161,,,,,,,None,783.6861872860784,None,782.7120490011441,783.7111634885284,783.1866135252187,None,2,"[0.007765313819618314, 0.4656426878018465]","[0.3326278524987174, 0.9656741185285682]",783.6861872860784,None,[0 2 3 1 0 1 2 1],space,0,1.153686190503322,0.0029343149130909296,None,784.1524640406826,None,1,785.3098085034869,None,None,785.809424631683,None,,,,,,,,,,,,,,,,,,,,,,,,,,,,,,,,,,,,,,,,,,,,,,15_ZTY,15,23,F,2022-12-07_12h16.05.019,dynamic target,2022.1.3,120.08580947071276,
1,7,2,2,L,0,162,162,162,,,,,,,None,786.8419005583121,None,785.851058445757,None,786.3423146100279,None,1,[0.008990470716526033],[0.5173093501921358],786.8419005583121,None,[0 0 1 2 1 2 0 0],space,0,2.9275061912217097,0.0023249436817422975,None,786.8585549947913,None,1,789.7894757098213,None,None,790.289040843267,None,,,,,,,,,,,,,,,,,,,,,,,,,,,,,,,,,,,,,,,,,,,,,,15_ZTY,15,23,F,2022-12-07_12h16.05.019,dynamic target,2022.1.3,120.08580947071276,
1,2,4,0,L,0,163,163,163,,,,,,,None,791.3215154870093,None,790.3306724122888,None,790.821929538725,None,1,[0.009213051577262377],[0.5172702221448162],791.3215154870093,None,[2 1 2 2 3 1 2 2],space,0,2.287351770137775,0.002324622959804401,None,791.3381744135925,None,1,793.6279243404676,None,None,794.1275215460839,None,,,,,,,,,,,,,,,,,,,,,,,,,,,,,,,,,,,,,,,,,,,,,,15_ZTY,15,23,F,2022-12-07_12h16.05.019,dynamic target,2022.1.3,120.08580947071276,
1,3,3,2,L,0,164,164,164,,,,,,,None,795.1600067736424,None,794.1691633782,None,794.6604172974191,None,1,[0.008737100573398493],[0.5175402698168909],795.1600067736424,None,[3 3 1 3 3 1 3 1],space,0,1.2322998901954634,0.0019464920746941061,None,795.1766557578524,None,1,796.4089711632703,None,None,796.9085638787826,None,,,,,,,,,,,,,,,,,,,,,,,,,,,,,,,,,,,,,,,,,,,,,,15_ZTY,15,23,F,2022-12-07_12h16.05.019,dynamic target,2022.1.3,120.08580947071276,
1,4,3,2,L,0,165,165,165,,,,,,,None,797.9410247314916,None,796.9501797324408,None,797.4414384624858,None,1,[0.009077386298031342],[0.517508518368686],797.9410247314916,None,[0 0 3 1 2 3 1 1],space,0,3.4118331631475485,0.0024981333995128807,None,797.9576791679708,None,1,801.3715182452158,None,None,801.8711071120676,None,,,,,,,,,,,,,,,,,,,,,,,,,,,,,,,,,,,,,,,,,,,,,,15_ZTY,15,23,F,2022-12-07_12h16.05.019,dynamic target,2022.1.3,120.08580947071276,
1,5,1,2,L,0,166,166,166,,,,,,,None,802.9035746999327,None,801.912733870264,None,802.4039942039174,None,1,[0.00908957372257646],[0.5174453361933047],802.9035746999327,None,[3 1 3 2 3 1 0 0],space,0,1.0891050273867222,0.002475682880685781,None,802.9202278535251,None,1,804.011008451658,None,None,804.510574547269,None,,,,,,,,,,,,,,,,,,,,,,,,,,,,,,,,,,,,,,,,,,,,,,15_ZTY,15,23,F,2022-12-07_12h16.05.019,dynamic target,2022.1.3,120.08580947071276,
1,6,4,2,L,0,167,167,167,,,,,,,None,805.5430488702898,None,804.5605455219554,None,805.0434642048924,None,1,[0.00783234465507121],[0.516843983004037],805.5430488702898,None,[0 3 0 2 2 2 0 2],space,0,3.5690342633511136,0.0018547656682130764,None,805.5597273608967,None,1,809.1317406079854,None,None,809.6313237018469,None,,,,,,,,,,,,,,,,,,,,,,,,,,,,,,,,,,,,,,,,,,,,,,15_ZTY,15,23,F,2022-12-07_12h16.05.019,dynamic target,2022.1.3,120.08580947071276,
1,7,1,2,L,0,168,168,168,,,,,,,None,810.663799628476,None,809.6729575159204,810.6721290917674,810.164224905451,None,2,"[0.008656920147586789, 0.15014137412572381]","[0.025705523597025604, 0.6507177110220255]",810.663799628476,None,[0 3 1 3 0 1 3 2],space,0,1.0040428971792608,0.0025658056783868233,None,810.8136780108068,None,1,811.8211748805631,None,None,812.3207624645281,None,,,,,,,,,,,,,,,,,,,,,,,,,,,,,,,,,,,,,,,,,,,,,,15_ZTY,15,23,F,2022-12-07_12h16.05.019,dynamic target,2022.1.3,120.08580947071276,
1,8,1,2,L,0,169,169,169,,,,,,,None,813.3532470506432,None,812.3791264054023,None,812.8536511599862,None,1,[0.008619074987109343],[0.5172573932763953],813.3532470506432,None,[2 0 2 3 3 3 1 3],space,0,1.615376304064739,0.002704998897115729,None,813.3698876960891,None,1,814.9852163332014,None,None,815.4848096901571,None,,,,,,,,,,,,,,,,,,,,,,,,,,,,,,,,,,,,,,,,,,,,,,15_ZTY,15,23,F,2022-12-07_12h16.05.019,dynamic target,2022.1.3,120.08580947071276,
1,5,3,0,L,0,170,170,170,,,,,,,None,816.5172859375077,None,815.5347758540177,None,816.0176906882941,None,1,[0.0076046322478759976],[0.5165255063557197],816.5172859375077,None,[0 0 1 1 0 2 0 1],space,0,2.322736674665066,0.002220709128323506,None,816.5339397325436,None,1,818.8570020603163,None,None,819.3565915686111,None,,,,,,,,,,,,,,,,,,,,,,,,,,,,,,,,,,,,,,,,,,,,,,15_ZTY,15,23,F,2022-12-07_12h16.05.019,dynamic target,2022.1.3,120.08580947071276,
1,6,1,2,L,0,171,171,171,,,,,,,None,820.3890758340046,None,819.406550035151,None,819.889497583041,None,1,[0.008602397458616906],[0.5170941459305141],820.3890758340046,None,[0 1 2 2 0 0 0 0],space,0,2.8995726139692124,0.0028323254123279185,None,820.4057193659457,None,1,823.3033138890457,None,None,823.8029001901239,None,,,,,,,,,,,,,,,,,,,,,,,,,,,,,,,,,,,,,,,,,,,,,,15_ZTY,15,23,F,2022-12-07_12h16.05.019,dynamic target,2022.1.3,120.08580947071276,
1,7,1,2,L,0,172,172,172,,,,,,,None,824.8270485777914,None,823.836213200392,None,824.327468081776,None,1,[0.008613943440195726],[0.5175130084721786],824.8270485777914,None,[0 2 1 1 2 2 3 1],space,0,1.7410876647973055,0.0024811351495372946,None,824.8437030142707,None,1,826.5839248510567,None,None,827.0835085863612,None,,,,,,,,,,,,,,,,,,,,,,,,,,,,,,,,,,,,,,,,,,,,,,15_ZTY,15,23,F,2022-12-07_12h16.05.019,dynamic target,2022.1.3,120.08580947071276,
1,4,2,0,L,0,173,173,173,,,,,,,None,828.115987078764,None,827.141866754245,None,827.6164011304797,None,1,[0.007690906385050766],[0.5164341006702671],828.115987078764,None,[1 1 3 2 0 0 3 3],space,0,3.156873843488029,0.0026732474484560953,None,828.1326466467901,None,1,831.2883554289203,None,None,831.787920883088,None,,,,,,,,,,,,,,,,,,,,,,,,,,,,,,,,,,,,,,,,,,,,,,15_ZTY,15,23,F,2022-12-07_12h16.05.019,dynamic target,2022.1.3,120.08580947071276,
1,5,4,2,L,0,174,174,174,,,,,,,None,832.8204173359056,None,831.8462739194244,None,832.3208320290648,None,1,[0.008585719930579216],[0.5174321866038554],832.8204173359056,None,[3 2 2 1 0 2 2 3],space,0,6.59583024073163,0.0026546455892457743,None,832.8370772246537,None,1,839.4315958342097,None,None,839.9311837388966,None,,,,,,,,,,,,,,,,,,,,,,,,,,,,,,,,,,,,,,,,,,,,,,15_ZTY,15,23,F,2022-12-07_12h16.05.019,dynamic target,2022.1.3,120.08580947071276,
1,8,2,0,L,0,175,175,175,,,,,,,None,840.9636593448038,None,839.9728214016307,None,840.4640756415718,None,1,[0.009825630025716237],[0.5178741411073133],840.9636593448038,None,[3 1 1 3 0 3 2 3],space,0,4.307886939196123,0.002157526953396882,None,840.9803157056133,None,1,845.2934003812741,None,None,845.7929937382294,None,,,,,,,,,,,,,,,,,,,,,,,,,,,,,,,,,,,,,,,,,,,,,,15_ZTY,15,23,F,2022-12-07_12h16.05.019,dynamic target,2022.1.3,120.08580947071276,
1,1,1,2,L,0,176,176,176,,,,,,,None,846.8171376357934,None,845.8513342664194,None,846.3175497631789,None,1,[0.009368601602091076],[0.5172936348290023],846.8171376357934,None,[2 2 1 1 2 3 1 2],space,0,1.862800908807003,0.002300568832197314,None,846.8337879028907,None,1,848.6989109573926,None,None,849.1984975791927,None,,,,,,,,,,,,,,,,,,,,,,,,,,,,,,,,,,,,,,,,,,,,,,15_ZTY,15,23,F,2022-12-07_12h16.05.019,dynamic target,2022.1.3,120.08580947071276,
1,1,3,0,L,0,177,177,177,,,,,,,None,850.2309699778828,None,849.240133638318,None,849.7313856332073,None,1,[0.008972189579708356],[0.5176505980816728],850.2309699778828,None,[1 3 2 0 2 2 3 0],space,0,2.1129356119217846,0.002385880804467888,None,850.2476388468388,None,1,852.3625322646028,None,None,852.8621188864029,None,,,,,,,,,,,,,,,,,,,,,,,,,,,,,,,,,,,,,,,,,,,,,,15_ZTY,15,23,F,2022-12-07_12h16.05.019,dynamic target,2022.1.3,120.08580947071276,
1,2,1,2,L,0,178,178,178,,,,,,,None,853.8945967373622,None,852.9120808808814,None,853.3950104683561,None,1,[0.008249924309893686],[0.5170793927327395],853.8945967373622,None,[0 3 0 2 3 0 2 0],space,0,1.4898548105788905,0.0025815210415203182,None,853.9112614369358,None,1,855.4016872527234,None,None,855.9012671393677,None,,,,,,,,,,,,,,,,,,,,,,,,,,,,,,,,,,,,,,,,,,,,,,15_ZTY,15,23,F,2022-12-07_12h16.05.019,dynamic target,2022.1.3,120.08580947071276,
1,3,1,2,L,0,179,179,179,,,,,,,None,856.9337421038315,None,855.9596015738455,None,856.4341551933824,None,1,[0.008880142451744177],[0.5175659275528233],856.9337421038315,None,[3 0 1 1 1 1 0 0],space,0,2.4973940156000936,0.0023156427519097633,None,856.9503968610322,None,1,859.4483198672981,None,space,859.9562365617605,None,2.6975605984512185,,,,,,,,,,,,,,,,,,,,,,,,,,,,,,,,,,,,,,,,,,,,,15_ZTY,15,23,F,2022-12-07_12h16.05.019,dynamic target,2022.1.3,120.08580947071276,
1,2,1,1,L,0,180,180,180,,,,,,,None,863.6947980223015,None,862.7206847536602,863.7197799977419,863.1952152812344,None,1,[0.0414022850782203],[0.5414972187013518],863.6947980223015,None,[1 1 0 2 0 3 0 1],space,0,1.9841526994609922,0.002946823059573944,None,863.7364321891694,None,1,865.7181218665489,None,None,866.2177197136082,None,,,,,,,,,,,,,,,,,,,,,,,,,,,,,,,,,,,,,,,,,,,,,,15_ZTY,15,23,F,2022-12-07_12h16.05.019,dynamic target,2022.1.3,120.08580947071276,
1,1,2,1,L,0,181,181,181,,,,,,,None,867.2501802455956,None,866.2593474339699,867.2585100296089,866.7505975045285,None,1,[0.09978742565681387],[0.6087981018408755],867.2501802455956,None,[3 0 1 0 3 3 0 0],space,0,4.13751636451434,0.0021796567507408326,None,867.3584260646678,None,1,871.4966616078161,None,None,871.9962459845644,None,,,,,,,,,,,,,,,,,,,,,,,,,,,,,,,,,,,,,,,,,,,,,,15_ZTY,15,23,F,2022-12-07_12h16.05.019,dynamic target,2022.1.3,120.08580947071276,
1,2,3,2,L,0,182,182,182,,,,,,,None,873.0287193454199,None,872.0462089412079,873.0453731404552,872.5291186439374,None,2,"[0.009733262175814161, 0.6008272054109511]","[0.46683256531196093, 1.1084783423052613]",873.0287193454199,None,[2 0 3 1 3 0 3 2],space,0,2.115854820842287,0.002614876098505192,None,873.6365517542192,None,1,875.751442926932,None,None,876.2510484713118,None,,,,,,,,,,,,,,,,,,,,,,,,,,,,,,,,,,,,,,,,,,,,,,15_ZTY,15,23,F,2022-12-07_12h16.05.019,dynamic target,2022.1.3,120.08580947071276,
1,1,3,1,L,0,183,183,183,,,,,,,None,877.2835240772195,None,876.3010582533241,877.3001961533921,876.7839400532655,None,1,[0.16681120524617654],[0.6672996643965234],877.2835240772195,None,[2 2 1 3 2 3 3 1],space,0,1.837612709312907,0.0025013406166181085,None,877.4500540095344,None,1,879.2901973336482,None,None,879.7897768995706,None,,,,,,,,,,,,,,,,,,,,,,,,,,,,,,,,,,,,,,,,,,,,,,15_ZTY,15,23,F,2022-12-07_12h16.05.019,dynamic target,2022.1.3,120.08580947071276,
1,8,2,1,L,0,184,184,184,,,,,,,None,880.8222541090865,None,879.8481254458031,None,880.3226848383304,None,1,[0.009227804775491677],[0.5175357797129436],880.8222541090865,None,[2 2 2 2 2 1 1 3],space,0,2.25659263470061,0.0024282160688926524,None,880.838911432061,None,1,883.0953672391763,None,None,883.5949545024193,None,,,,,,,,,,,,,,,,,,,,,,,,,,,,,,,,,,,,,,,,,,,,,,15_ZTY,15,23,F,2022-12-07_12h16.05.019,dynamic target,2022.1.3,120.08580947071276,
1,7,2,1,L,0,185,185,185,,,,,,,None,884.6274438993598,None,883.6615815171933,884.6607428299455,884.1278489708682,None,2,"[0.008060698506142217, 0.9078233003033347]","[0.517222113889602, 1.415577068141829]",884.6274438993598,None,[2 3 2 0 3 2 0 1],space,0,3.072920448199511,0.0030696594708388147,None,885.543338161264,None,1,888.6157869484225,None,None,889.1153748531094,None,,,,,,,,,,,,,,,,,,,,,,,,,,,,,,,,,,,,,,,,,,,,,,15_ZTY,15,23,F,2022-12-07_12h16.05.019,dynamic target,2022.1.3,120.08580947071276,
1,6,1,1,L,0,186,186,186,,,,,,,None,890.1478488554083,None,889.1736775361389,None,889.6482619449591,None,1,[0.008583474878378183],[0.5172763158570888],890.1478488554083,None,[2 1 3 3 0 0 0 1],space,0,3.1554132768624186,0.0026844727080970188,None,890.1645032918875,None,1,893.3202162433993,None,None,893.8197938849919,None,,,,,,,,,,,,,,,,,,,,,,,,,,,,,,,,,,,,,,,,,,,,,,15_ZTY,15,23,F,2022-12-07_12h16.05.019,dynamic target,2022.1.3,120.08580947071276,
1,7,4,2,L,0,187,187,187,,,,,,,None,894.8522787918284,None,893.8614588090702,894.8606198011009,894.3526941264311,None,3,"[0.009047238458151696, 0.15042809932629098, 0.17507459986791218]","[0.025479735520093527, 0.1583855254448281, 0.6752695986619983]",894.8522787918284,None,[2 3 1 0 2 2 1 2],space,0,1.9087680258530781,0.0027752369492191065,None,895.0271336973308,None,1,896.9338896358138,None,None,897.4334704846231,None,,,,,,,,,,,,,,,,,,,,,,,,,,,,,,,,,,,,,,,,,,,,,,15_ZTY,15,23,F,2022-12-07_12h16.05.019,dynamic target,2022.1.3,120.08580947071276,
1,8,3,2,L,0,188,188,188,,,,,,,None,898.4659537878513,None,897.4834895675642,None,897.9663607836899,None,1,[0.00869765180414106],[0.5172808059610361],898.4659537878513,None,[2 1 3 0 3 2 1 2],space,0,3.732638251589833,0.0025542596972627507,None,898.4826018098968,None,1,902.2128315620942,None,None,902.7124197875025,None,,,,,,,,,,,,,,,,,,,,,,,,,,,,,,,,,,,,,,,,,,,,,,15_ZTY,15,23,F,2022-12-07_12h16.05.019,dynamic target,2022.1.3,120.08580947071276,
1,1,1,2,L,0,189,189,189,,,,,,,None,903.7448992420702,None,902.7707314507395,903.7698760859637,903.245313293786,None,2,"[0.03355037639857983, 0.0746915940121653]","[0.04140902023345916, 0.5748298250655353]",903.7448992420702,None,[3 2 2 0 0 0 0 0],space,0,3.563827025816863,0.0029429743985929235,None,903.819848054887,None,1,907.3835555720905,None,None,907.8831332136826,None,,,,,,,,,,,,,,,,,,,,,,,,,,,,,,,,,,,,,,,,,,,,,,15_ZTY,15,23,F,2022-12-07_12h16.05.019,dynamic target,2022.1.3,120.08580947071276,
1,2,2,2,L,0,190,190,190,,,,,,,None,908.9156495512459,None,907.9330971324914,None,908.4160177397587,None,1,[0.009297401384628756],[0.5174972931090451],908.9156495512459,None,[2 1 2 3 3 3 3 2],space,0,2.3708109332847016,0.002461891846905928,None,908.9322699912248,None,1,911.3052924212177,None,None,911.8048800051827,None,,,,,,,,,,,,,,,,,,,,,,,,,,,,,,,,,,,,,,,,,,,,,,15_ZTY,15,23,F,2022-12-07_12h16.05.019,dynamic target,2022.1.3,120.08580947071276,
1,3,1,2,L,0,191,191,191,,,,,,,None,912.8373549696469,None,911.8631878197596,912.8623327757052,912.3377693420841,None,2,"[0.007867624042319221, 0.47410492987728503]","[0.33300213472375617, 0.9746161602683969]",912.8373549696469,None,[2 3 0 3 2 1 3 1],space,0,3.0473037645133445,0.002572861555563577,None,913.3119615082644,None,1,916.3594392245207,None,None,916.8590303364242,None,,,,,,,,,,,,,,,,,,,,,,,,,,,,,,,,,,,,,,,,,,,,,,15_ZTY,15,23,F,2022-12-07_12h16.05.019,dynamic target,2022.1.3,120.08580947071276,
1,4,1,2,L,0,192,192,192,,,,,,,None,917.8914985657323,None,916.9006769793662,917.8998219353118,917.3919081273445,None,1,[0.07475862484807294],[0.575079346549046],917.8914985657323,None,[2 3 1 0 0 0 0 3],space,0,2.8564826913016077,0.0027069232273788657,None,917.9664380776196,None,1,920.8223926608609,None,None,921.321979282661,None,,,,,,,,,,,,,,,,,,,,,,,,,,,,,,,,,,,,,,,,,,,,,,15_ZTY,15,23,F,2022-12-07_12h16.05.019,dynamic target,2022.1.3,120.08580947071276,
1,5,3,2,L,0,193,193,193,,,,,,,None,922.354464830941,None,921.363617266117,922.3627833896946,921.8548708646142,None,1,[0.16674577801950363],[0.6667483437927331],922.354464830941,None,[0 3 2 1 1 2 3 0],space,0,1.1029399993944935,0.0030193061634236074,None,922.5209883488221,None,1,923.6284012536369,None,None,924.1279869132716,None,,,,,,,,,,,,,,,,,,,,,,,,,,,,,,,,,,,,,,,,,,,,,,15_ZTY,15,23,F,2022-12-07_12h16.05.019,dynamic target,2022.1.3,120.08580947071276,
1,6,1,2,L,0,194,194,194,,,,,,,None,925.1604551425801,None,924.1862802953717,925.1854262134827,924.6608910033713,None,1,[0.16689459288909347],[0.6670530294090895],925.1604551425801,None,[3 3 1 1 0 1 1 0],space,0,2.759427173092263,0.002539506498578703,None,925.3269953379893,None,1,928.0913697638973,None,None,928.5909490090983,None,,,,,,,,,,,,,,,,,,,,,,,,,,,,,,,,,,,,,,,,,,,,,,15_ZTY,15,23,F,2022-12-07_12h16.05.019,dynamic target,2022.1.3,120.08580947071276,
1,5,3,1,L,0,195,195,195,,,,,,,None,929.6234374438734,None,928.6492853679063,None,929.1238508541458,None,1,[0.008509067443810636],[0.5174267343345491],929.6234374438734,None,[1 0 3 3 1 1 0 3],space,0,1.246168537981248,0.0023865222474341863,None,929.6400800136496,None,1,930.8890450447213,None,None,931.3886258935306,None,,,,,,,,,,,,,,,,,,,,,,,,,,,,,,,,,,,,,,,,,,,,,,15_ZTY,15,23,F,2022-12-07_12h16.05.019,dynamic target,2022.1.3,120.08580947071276,
1,6,1,2,L,0,196,196,196,,,,,,,None,932.42110374449,None,931.4469577622347,None,931.921516192597,None,1,[0.008628375916941877],[0.5173128781311789],932.42110374449,None,[3 2 2 2 2 1 3 0],space,0,1.185557909520412,0.0025324506214019493,None,932.4377610674644,None,1,933.6284365330241,None,None,934.128020909772,None,,,,,,,,,,,,,,,,,,,,,,,,,,,,,,,,,,,,,,,,,,,,,,15_ZTY,15,23,F,2022-12-07_12h16.05.019,dynamic target,2022.1.3,120.08580947071276,
1,7,1,2,L,0,197,197,197,,,,,,,None,935.1604990814528,None,934.1779796970334,None,934.6609124917252,None,1,[0.00865050571383108],[0.5171480271765176],935.1604990814528,None,[0 3 0 3 0 0 3 1],space,0,1.2621501003318372,0.0028150064395049412,None,935.1771480656632,None,1,936.4427787584734,None,None,936.9423522306836,None,,,,,,,,,,,,,,,,,,,,,,,,,,,,,,,,,,,,,,,,,,,,,,15_ZTY,15,23,F,2022-12-07_12h16.05.019,dynamic target,2022.1.3,120.08580947071276,
1,8,3,2,L,0,198,198,198,,,,,,,None,937.9748269064978,None,937.0006994940293,None,937.4752473405754,None,1,[0.008637676845864917],[0.5090674439247778],937.9748269064978,None,[0 2 3 0 3 0 2 2],space,0,2.24719292309328,0.0024452143188682385,None,937.9831569791606,None,1,940.2312983969043,None,None,940.7308747556101,None,,,,,,,,,,,,,,,,,,,,,,,,,,,,,,,,,,,,,,,,,,,,,,15_ZTY,15,23,F,2022-12-07_12h16.05.019,dynamic target,2022.1.3,120.08580947071276,
1,1,4,2,L,0,199,199,199,,,,,,,None,941.7633507143112,None,940.7808329014281,None,941.2554391193237,None,1,[0.008219135026592994],[0.5160501967948221],941.7633507143112,None,[2 3 2 2 0 1 1 2],space,0,3.1478641294688714,0.003112315456746728,None,941.7717003509977,None,1,944.9190661995247,None,None,945.418650255551,None,,,,,,,,,,,,,,,,,,,,,,,,,,,,,,,,,,,,,,,,,,,,,,15_ZTY,15,23,F,2022-12-07_12h16.05.019,dynamic target,2022.1.3,120.08580947071276,
1,2,1,2,L,0,200,200,200,,,,,,,None,946.4511268236236,None,945.4602821452947,None,945.9515418375042,None,1,[0.008916704725834279],[0.5175999240532292],946.4511268236236,None,[2 2 1 0 2 1 0 2],space,0,2.114280077291369,0.0022906264593984815,None,946.467801144848,None,1,948.5826916761173,None,None,949.0822760528652,None,,,,,,,,,,,,,,,,,,,,,,,,,,,,,,,,,,,,,,,,,,,,,,15_ZTY,15,23,F,2022-12-07_12h16.05.019,dynamic target,2022.1.3,120.08580947071276,
1,3,2,2,L,0,201,201,201,,,,,,,None,950.1147731471267,None,949.1406236369328,None,949.615170200592,None,1,[0.009324662728886324],[0.5175210265147143],950.1147731471267,None,[0 3 1 1 2 0 3 1],space,0,3.042407627029206,0.0024782486548247107,None,950.1314259799972,None,1,953.1788790006824,None,None,953.6784665846474,None,,,,,,,,,,,,,,,,,,,,,,,,,,,,,,,,,,,,,,,,,,,,,,15_ZTY,15,23,F,2022-12-07_12h16.05.019,dynamic target,2022.1.3,120.08580947071276,
1,2,1,1,L,0,202,202,202,,,,,,,None,954.7109518122058,None,953.7367942839694,None,954.211354638662,None,1,[0.008245434205946367],[0.5170492448928599],954.7109518122058,None,[3 2 1 0 2 0 3 2],space,0,3.230697564577895,0.0024760036021689302,None,954.7275940612601,None,1,957.9582458832163,None,None,958.457831222129,None,,,,,,,,,,,,,,,,,,,,,,,,,,,,,,,,,,,,,,,,,,,,,,15_ZTY,15,23,F,2022-12-07_12h16.05.019,dynamic target,2022.1.3,120.08580947071276,
1,6,4,0,L,0,203,203,203,,,,,,,None,959.4903074694801,None,958.5077967445461,None,958.9907458960449,None,1,[0.008636714680960722],[0.5179071754423603],959.4903074694801,None,[0 0 1 0 2 2 1 1],space,0,1.9385957854706248,0.002296399449733144,None,959.5069798663742,None,1,961.4470177371929,None,None,961.9466027553842,None,,,,,,,,,,,,,,,,,,,,,,,,,,,,,,,,,,,,,,,,,,,,,,15_ZTY,15,23,F,2022-12-07_12h16.05.019,dynamic target,2022.1.3,120.08580947071276,
1,7,3,2,L,0,204,204,204,,,,,,,None,962.979081247787,None,961.9965682778013,None,962.4794952995028,None,1,[0.008658523756366776],[0.5171942111014687],962.979081247787,None,[3 0 1 0 3 1 0 3],space,0,2.578713965002862,0.0027454098312773567,None,962.9957324770492,None,1,965.5769218927196,None,None,966.0765226262745,None,,,,,,,,,,,,,,,,,,,,,,,,,,,,,,,,,,,,,,,,,,,,,,15_ZTY,15,23,F,2022-12-07_12h16.05.019,dynamic target,2022.1.3,120.08580947071276,
1,8,4,2,L,0,205,205,205,,,,,,,None,967.108986365479,None,966.1265096370455,None,966.6093984928646,None,1,[0.0076575513280658924],[0.5163593725142164],967.108986365479,None,[3 1 3 1 0 3 3 2],space,0,1.1528728402704473,0.0028089127276871295,None,967.1256404812364,None,1,968.2830125261069,None,None,968.782607165949,None,,,,,,,,,,,,,,,,,,,,,,,,,,,,,,,,,,,,,,,,,,,,,,15_ZTY,15,23,F,2022-12-07_12h16.05.019,dynamic target,2022.1.3,120.08580947071276,
1,1,2,2,L,0,206,206,206,,,,,,,None,969.8150824511347,None,968.832556652281,969.8317285488495,969.3154888055299,None,1,[0.06644968774526205],[0.5669294874096522],969.8150824511347,None,[2 2 1 1 1 2 3 0],space,0,2.7641908525142753,0.0024317440074810293,None,969.8816880096267,None,1,972.6460576247093,None,None,973.1456423221791,None,,,,,,,,,,,,,,,,,,,,,,,,,,,,,,,,,,,,,,,,,,,,,,15_ZTY,15,23,F,2022-12-07_12h16.05.019,dynamic target,2022.1.3,120.08580947071276,
1,2,1,2,L,0,207,207,207,,,,,,,None,974.1697929548989,None,973.1789899703911,974.1781253046854,973.6702073273361,None,2,"[0.009422162126156763, 0.733235235255961]","[0.4165270458197483, 1.2418222380733823]",974.1697929548989,None,[2 0 3 3 0 3 3 1],space,0,2.6152172261008673,0.00251160371090009,None,974.91084738522,None,1,977.5253508053963,None,None,978.0249290884319,None,,,,,,,,,,,,,,,,,,,,,,,,,,,,,,,,,,,,,,,,,,,,,,15_ZTY,15,23,F,2022-12-07_12h16.05.019,dynamic target,2022.1.3,120.08580947071276,
1,3,3,2,L,0,208,208,208,,,,,,,None,979.0573982799053,None,978.0665728448782,None,978.5578213118285,None,1,[0.00868289860591176],[0.5175136499155997],979.0573982799053,None,[2 0 3 1 2 3 3 2],space,0,2.2761467160767097,0.002430140399155789,None,979.0740607344271,None,1,981.3471761095686,None,None,981.8467556754911,None,,,,,,,,,,,,,,,,,,,,,,,,,,,,,,,,,,,,,,,,,,,,,,15_ZTY,15,23,F,2022-12-07_12h16.05.019,dynamic target,2022.1.3,120.08580947071276,
1,4,4,2,L,0,209,209,209,,,,,,,None,982.8792309606768,None,981.8967731548239,None,982.3796459745579,None,1,[0.00841926536804749],[0.5174418082547163],982.8792309606768,None,[1 2 1 3 2 3 1 1],space,0,4.405522642962296,0.002301851719039405,None,982.8958860385994,None,1,987.300563059018,None,None,987.8001483979308,None,,,,,,,,,,,,,,,,,,,,,,,,,,,,,,,,,,,,,,,,,,,,,,15_ZTY,15,23,F,2022-12-07_12h16.05.019,dynamic target,2022.1.3,120.08580947071276,
1,5,3,2,L,0,210,210,210,,,,,,,None,988.8326256074467,None,987.841788305717,None,988.3330383762757,None,1,[0.008674239119955018],[0.517835975224898],988.8326256074467,None,[2 0 1 2 1 2 0 0],space,0,2.771813124455548,0.0019971661031377153,None,988.8492806853694,None,1,991.6219810466303,None,None,992.1215618954395,None,,,,,,,,,,,,,,,,,,,,,,,,,,,,,,,,,,,,,,,,,,,,,,15_ZTY,15,23,F,2022-12-07_12h16.05.019,dynamic target,2022.1.3,120.08580947071276,
1,6,4,2,L,0,211,211,211,,,,,,,None,993.1540400671204,None,992.1631934644613,None,992.654459571105,None,1,[0.009612670816295577],[0.517573945595359],993.1540400671204,None,[2 2 3 0 0 1 3 2],space,0,0.9781734847929329,0.002456760299992311,None,993.1706941828782,None,1,994.1532151709059,None,None,994.6527940953849,None,,,,,,,,,,,,,,,,,,,,,,,,,,,,,,,,,,,,,,,,,,,,,,15_ZTY,15,23,F,2022-12-07_12h16.05.019,dynamic target,2022.1.3,120.08580947071276,
