tar_letter,tar_pos,tar_ori,tar_pos_type,block,trials.thisRepN,trials.thisTrialN,trials.thisN,trials.thisIndex,instructions_key.keys,instructions_key.rt,instructions_key.started,instructions_key.stopped,instruction_text.started,instruction_text.stopped,fix_key.keys,fix_key.started,fix_key.stopped,fixcross.started,fixcross.stopped,roi.started,roi.stopped,roi.numLooks,roi.timesOn,roi.timesOff,RedFixCross.started,RedFixCross.stopped,distori,search_resp.keys,search_resp.corr,search_resp.rt,search_resp.started,search_resp.stopped,fixcross_shape.started,fixcross_shape.stopped,correct,feedback_text.started,feedback_text.stopped,break_key.keys,break_key.started,break_key.stopped,break_key.rt,text_q1.started,text_q1.stopped,key_resp1.keys,key_resp1.rt,key_resp1.started,key_resp1.stopped,text_q2.started,text_q2.stopped,key_resp_2.keys,key_resp_2.rt,key_resp_2.started,key_resp_2.stopped,image.started,image.stopped,text_q1_2.started,text_q1_2.stopped,slider.response,slider.rt,slider.started,slider.stopped,mouse.x,mouse.y,mouse.leftButton,mouse.midButton,mouse.rightButton,mouse.time,mouse.started,mouse.stopped,key_resp_3.keys,key_resp_3.rt,key_resp_3.started,key_resp_3.stopped,text_q4.started,text_q4.stopped,key_resp1_3.keys,key_resp1_3.rt,key_resp1_3.started,key_resp1_3.stopped,finish_text.started,finish_text.stopped,key_resp.keys,key_resp.rt,key_resp.started,key_resp.stopped,participant,group,age,gender,date,expName,psychopyVersion,frameRate,
,,,,,,,,,space,16.776031879767515,65.49685155382576,None,,,,,,,,,,,,,,,,,,,,,,,,,,,,,,,,,,,,,,,,,,,,,,,,,,,,,,,,,,,,,,,,,,,,,,,,,,16_Lizz,16,24,F,2022-12-08_13h10.24.388,dynamic target,2022.1.3,120.10176529272292,
0,8,1,0,T,0,0,0,0,,,,,65.49685155382576,None,None,126.28656344390038,None,125.33028730172668,None,125.78701468804502,None,1,[0.008943742330984605],[0.5178464333112061],126.28656344390038,None,[2 2 0 0 3 0 0 0],space,0,2.789579466942314,0.00623833003078289,None,126.31156467864798,None,1,129.10917318089605,None,None,129.60874220585592,None,,,,,,,,,,,,,,,,,,,,,,,,,,,,,,,,,,,,,,,,,,,,,,16_Lizz,16,24,F,2022-12-08_13h10.24.388,dynamic target,2022.1.3,120.10176529272292,
0,1,4,2,T,0,1,1,1,,,,,,,None,130.6411961850466,None,129.6670834875431,None,130.13329181160248,None,1,[0.008650289315937698],[0.5164766651935224],130.6411961850466,None,[2 1 1 1 0 0 0 0],space,0,3.038745130309735,0.0013781708157694084,None,130.64951928226833,None,1,133.68859247105388,None,None,134.18816791028743,None,,,,,,,,,,,,,,,,,,,,,,,,,,,,,,,,,,,,,,,,,,,,,,16_Lizz,16,24,F,2022-12-08_13h10.24.388,dynamic target,2022.1.3,120.10176529272292,
0,2,1,2,T,0,2,2,2,,,,,,,None,135.22062759818164,None,134.22979423651873,None,134.72104548810375,None,1,[0.009518461241214027],[0.5175289267699554],135.22062759818164,None,[1 3 3 1 0 0 0 0],space,0,1.4438975879709233,0.002590789231362578,None,135.23725179166695,None,1,136.68602996876893,None,None,137.18562208511352,None,,,,,,,,,,,,,,,,,,,,,,,,,,,,,,,,,,,,,,,,,,,,,,16_Lizz,16,24,F,2022-12-08_13h10.24.388,dynamic target,2022.1.3,120.10176529272292,
0,1,2,1,T,0,3,3,3,,,,,,,None,138.21805226734955,None,137.227238148507,None,137.71847753368615,None,1,[0.009283057401944461],[0.5175468867359996],138.21805226734955,None,[1 3 2 0 2 1 3 1],space,0,2.1744666687347944,0.002347688263625969,None,138.23471173933922,None,1,140.4078512632591,None,None,140.90743343747985,None,,,,,,,,,,,,,,,,,,,,,,,,,,,,,,,,,,,,,,,,,,,,,,16_Lizz,16,24,F,2022-12-08_13h10.24.388,dynamic target,2022.1.3,120.10176529272292,
0,2,4,2,T,0,4,4,4,,,,,,,None,141.93988125896794,None,140.9490543115785,None,141.44029914889006,None,1,[0.00870994205979514],[0.5176463079760651],141.93988125896794,None,[2 3 2 0 0 1 1 3],space,0,1.3001357576449664,0.002532419342060166,None,141.95651347029525,None,1,143.25541829722852,None,None,143.75499245360706,None,,,,,,,,,,,,,,,,,,,,,,,,,,,,,,,,,,,,,,,,,,,,,,16_Lizz,16,24,F,2022-12-08_13h10.24.388,dynamic target,2022.1.3,120.10176529272292,
0,3,2,2,T,0,5,5,5,,,,,,,None,144.78744765150986,None,143.79662391125726,None,144.28786810714155,None,1,[0.008750031269528336],[0.5176334794289232],144.78744765150986,None,[2 0 0 2 0 0 1 1],space,0,2.052346918096191,0.002537871474487474,None,144.80409589852115,None,1,146.8606739605509,None,None,147.36023336410048,None,,,,,,,,,,,,,,,,,,,,,,,,,,,,,,,,,,,,,,,,,,,,,,16_Lizz,16,24,F,2022-12-08_13h10.24.388,dynamic target,2022.1.3,120.10176529272292,
0,4,3,2,T,0,6,6,6,,,,,,,None,148.3926969005588,None,147.41025854012423,None,147.89312152546813,None,1,[0.00861565223863181],[0.5174981382569968],148.3926969005588,None,[0 1 1 0 1 0 1 2],space,0,1.5823429476608908,0.0019432683156992425,None,148.4093541275529,None,0,149.9996590813605,None,None,150.49925312198738,None,,,,,,,,,,,,,,,,,,,,,,,,,,,,,,,,,,,,,,,,,,,,,,16_Lizz,16,24,F,2022-12-08_13h10.24.388,dynamic target,2022.1.3,120.10176529272292,
0,4,2,0,T,0,7,7,7,,,,,,,None,151.53168137994112,None,150.5408672610988,None,151.03211017412832,None,1,[0.008933158779427686],[0.5175372653257],151.53168137994112,None,[3 2 0 0 3 0 0 3],space,0,1.7239062857256613,0.002347688263625969,None,151.54833668265314,None,1,153.280212671654,None,None,153.7797486631051,None,,,,,,,,,,,,,,,,,,,,,,,,,,,,,,,,,,,,,,,,,,,,,,16_Lizz,16,24,F,2022-12-08_13h10.24.388,dynamic target,2022.1.3,120.10176529272292,
0,5,4,2,T,0,8,8,8,,,,,,,None,154.81221476527276,None,153.83810309405317,None,154.31264035232311,None,1,[0.008659910726009912],[0.5171280346728508],154.81221476527276,None,[3 3 2 2 2 2 2 0],space,0,1.7238084680539032,0.00289578793876899,None,154.82888963151913,None,1,156.5523930692491,None,None,157.05196465991853,None,,,,,,,,,,,,,,,,,,,,,,,,,,,,,,,,,,,,,,,,,,,,,,16_Lizz,16,24,F,2022-12-08_13h10.24.388,dynamic target,2022.1.3,120.10176529272292,
0,6,2,2,T,0,9,9,9,,,,,,,None,158.0844057464194,None,157.10198823237374,None,157.58484544487146,None,1,[0.008649327174680366],[0.517679662198816],158.0844057464194,None,[0 1 2 1 3 0 0 0],space,0,2.2593249421533983,0.0023512161142207333,None,158.10108093337954,None,1,160.36581596294604,None,None,160.86537344221355,None,,,,,,,,,,,,,,,,,,,,,,,,,,,,,,,,,,,,,,,,,,,,,,16_Lizz,16,24,F,2022-12-08_13h10.24.388,dynamic target,2022.1.3,120.10176529272292,
0,7,2,2,T,0,10,10,10,,,,,,,None,161.89782928154364,None,160.92371183747764,None,161.39825807573084,None,1,[0.008605389400827335],[0.5172935229306859],161.89782928154364,None,[3 0 2 3 3 2 0 2],space,0,2.1104118087359893,0.0028383801907239103,None,161.91449196067015,None,1,164.02935652649126,None,None,164.52891881646391,None,,,,,,,,,,,,,,,,,,,,,,,,,,,,,,,,,,,,,,,,,,,,,,16_Lizz,16,24,F,2022-12-08_13h10.24.388,dynamic target,2022.1.3,120.10176529272292,
0,8,1,2,T,0,11,11,11,,,,,,,None,165.5613695243751,None,164.58724855245873,None,165.06181339210525,None,1,[0.008659910726237285],[0.5173720977818448],165.5613695243751,None,[3 1 1 0 1 0 1 0],space,0,0.9578268244222272,0.002699511167975288,None,165.57802065780947,None,1,166.53552064337737,None,None,167.0351108354399,None,,,,,,,,,,,,,,,,,,,,,,,,,,,,,,,,,,,,,,,,,,,,,,16_Lizz,16,24,F,2022-12-08_13h10.24.388,dynamic target,2022.1.3,120.10176529272292,
0,1,4,2,T,0,12,12,12,,,,,,,None,168.06756571262895,None,167.07673652024368,None,167.56798648897416,None,1,[0.009318656620280308],[0.5180702914581161],168.06756571262895,None,[1 1 2 3 1 2 0 2],space,0,1.266950551268792,0.0017835529044987197,None,168.08421556320855,None,1,169.349800484021,None,None,169.84939356250683,None,,,,,,,,,,,,,,,,,,,,,,,,,,,,,,,,,,,,,,,,,,,,,,16_Lizz,16,24,F,2022-12-08_13h10.24.388,dynamic target,2022.1.3,120.10176529272292,
0,2,3,2,T,0,13,13,13,,,,,,,None,170.8818291968753,None,169.89932220371338,170.8984806510232,170.3822515767888,None,2,"[0.008663117863079606, 0.7667353207746146]","[0.4748890811745241, 1.2745273802888732]",170.8818291968753,None,[2 2 1 3 3 1 2 1],space,0,0.6876547358767766,0.0031885995265383826,None,171.6561628661027,None,1,172.34724022673163,None,None,172.84681534525143,None,,,,,,,,,,,,,,,,,,,,,,,,,,,,,,,,,,,,,,,,,,,,,,16_Lizz,16,24,F,2022-12-08_13h10.24.388,dynamic target,2022.1.3,120.10176529272292,
0,3,3,2,T,0,14,14,14,,,,,,,None,173.8792650910218,None,172.88844936861096,None,173.37969067807217,None,1,[0.009438282821975008],[0.517671965070349],173.8792650910218,None,[3 2 3 2 0 2 2 2],space,0,0.6557700234641288,0.002357309673925556,None,173.89592520443898,None,1,174.55370126034063,None,None,175.05326322959954,None,,,,,,,,,,,,,,,,,,,,,,,,,,,,,,,,,,,,,,,,,,,,,,16_Lizz,16,24,F,2022-12-08_13h10.24.388,dynamic target,2022.1.3,120.10176529272292,
0,4,3,2,T,0,15,15,15,,,,,,,None,176.08571778607507,None,175.10326659709312,None,175.58614080741586,None,1,[0.008638102196073305],[0.5177005085877227],176.08571778607507,None,[3 0 1 3 3 0 0 2],space,0,0.6569980361362013,0.002364365375115085,None,176.10237340950061,None,1,176.7601385611374,None,None,177.25971271751595,None,,,,,,,,,,,,,,,,,,,,,,,,,,,,,,,,,,,,,,,,,,,,,,16_Lizz,16,24,F,2022-12-08_13h10.24.388,dynamic target,2022.1.3,120.10176529272292,
0,8,4,0,T,0,16,16,16,,,,,,,None,178.2921727902668,None,177.30967759936834,None,177.78427803823297,None,1,[0.009337578727127038],[0.5165260550998028],178.2921727902668,None,[0 2 1 2 3 3 0 2],space,0,5.210429896987307,0.0028480016010234976,None,178.30048562465072,None,1,183.51276632865574,None,None,184.0122798701494,None,,,,,,,,,,,,,,,,,,,,,,,,,,,,,,,,,,,,,,,,,,,,,,16_Lizz,16,24,F,2022-12-08_13h10.24.388,dynamic target,2022.1.3,120.10176529272292,
0,1,1,2,T,0,17,17,17,,,,,,,None,185.04473538876596,None,184.05392223206445,None,184.54515520297014,None,1,[0.008655420734612562],[0.5178743354010749],185.04473538876596,None,[3 3 0 3 2 0 3 0],space,0,0.9292226922186728,0.0023592339559854736,None,185.06138812576842,None,1,185.99391830652917,None,None,186.49349310433522,None,,,,,,,,,,,,,,,,,,,,,,,,,,,,,,,,,,,,,,,,,,,,,,16_Lizz,16,24,F,2022-12-08_13h10.24.388,dynamic target,2022.1.3,120.10176529272292,
0,8,3,1,T,0,18,18,18,,,,,,,None,187.52594451781655,None,186.53513161768615,None,187.02636939929675,None,1,[0.008689095670661118],[0.5089998672244747],187.52594451781655,None,[3 2 3 2 2 1 0 2],space,0,1.785033350560525,0.0027081704374722904,None,187.53428525429058,None,1,189.32440926144136,None,None,189.82398373853366,None,,,,,,,,,,,,,,,,,,,,,,,,,,,,,,,,,,,,,,,,,,,,,,16_Lizz,16,24,F,2022-12-08_13h10.24.388,dynamic target,2022.1.3,120.10176529272292,
0,1,4,2,T,0,19,19,19,,,,,,,None,190.85643957786374,None,189.87394156468508,None,190.35686933419197,None,1,[0.008671135704844346],[0.5173121243240075],190.85643957786374,None,[0 0 1 3 2 0 1 1],space,0,1.0054419013001734,0.0027482596472054865,None,190.87307082705001,None,1,191.88055949142517,None,None,192.38013364780372,None,,,,,,,,,,,,,,,,,,,,,,,,,,,,,,,,,,,,,,,,,,,,,,16_Lizz,16,24,F,2022-12-08_13h10.24.388,dynamic target,2022.1.3,120.10176529272292,
0,2,3,2,T,0,20,20,20,,,,,,,None,193.41258467642865,None,192.43009243609617,None,192.9130109049065,None,1,[0.00936612224450073],[0.5175379067532049],193.41258467642865,None,[3 2 2 0 1 3 3 2],space,0,1.5368375253544855,0.002496499409971875,None,193.42925376982885,None,1,194.96958608051318,None,None,195.46917659328946,None,,,,,,,,,,,,,,,,,,,,,,,,,,,,,,,,,,,,,,,,,,,,,,16_Lizz,16,24,F,2022-12-08_13h10.24.388,dynamic target,2022.1.3,120.10176529272292,
0,3,3,2,T,0,21,21,21,,,,,,,None,196.50161222765792,None,195.5107942602515,None,196.00203813542203,None,1,[0.009023600036698554],[0.5174423340770318],196.50161222765792,None,[2 2 2 2 3 0 0 2],space,0,0.8325214248225166,0.002522797931533205,None,196.5182761896392,None,1,197.35088770338848,None,None,197.85046410476306,None,,,,,,,,,,,,,,,,,,,,,,,,,,,,,,,,,,,,,,,,,,,,,,16_Lizz,16,24,F,2022-12-08_13h10.24.388,dynamic target,2022.1.3,120.10176529272292,
0,4,2,2,T,0,22,22,22,,,,,,,None,198.88291898195212,None,197.90878935076648,None,198.3833387961563,None,1,[0.008628801499298788],[0.517204043814445],198.88291898195212,None,[0 1 3 0 0 1 0 2],space,0,0.771168898272208,0.0027517874975728773,None,198.89956562539487,None,1,199.67389448391714,None,None,200.17347890313349,None,,,,,,,,,,,,,,,,,,,,,,,,,,,,,,,,,,,,,,,,,,,,,,16_Lizz,16,24,F,2022-12-08_13h10.24.388,dynamic target,2022.1.3,120.10176529272292,
0,5,3,2,T,0,23,23,23,,,,,,,None,201.20591293393363,None,200.21511453006156,None,200.70635391524047,None,1,[0.00863874362335082],[0.5173534963885231],201.20591293393363,None,[2 1 2 0 0 3 0 3],space,0,1.119693262569399,0.002539154329269877,None,201.2225810651928,None,1,202.3466250978979,None,None,202.84619700928087,None,,,,,,,,,,,,,,,,,,,,,,,,,,,,,,,,,,,,,,,,,,,,,,16_Lizz,16,24,F,2022-12-08_13h10.24.388,dynamic target,2022.1.3,120.10176529272292,
0,3,2,0,T,0,24,24,24,,,,,,,None,203.87862943651248,None,202.88782429765297,None,203.37908228422543,None,1,[0.00932763660330238],[0.5175933902194174],203.87862943651248,None,[0 1 2 1 2 3 1 3],space,0,2.526175078424558,0.0023938710332913615,None,203.89530109562202,None,1,206.4264786343756,None,None,206.9260450936259,None,,,,,,,,,,,,,,,,,,,,,,,,,,,,,,,,,,,,,,,,,,,,,,16_Lizz,16,24,F,2022-12-08_13h10.24.388,dynamic target,2022.1.3,120.10176529272292,
0,4,1,2,T,0,25,25,25,,,,,,,None,207.95848239570554,None,206.96768168269477,None,207.4589252371518,None,1,[0.008665683572189664],[0.5089334794931801],207.95848239570554,None,[3 1 3 3 1 1 3 0],space,0,1.3190716553192487,0.0025337021970699425,None,207.9668224907523,None,1,209.29068429394556,None,None,209.79026775102088,None,,,,,,,,,,,,,,,,,,,,,,,,,,,,,,,,,,,,,,,,,,,,,,16_Lizz,16,24,F,2022-12-08_13h10.24.388,dynamic target,2022.1.3,120.10176529272292,
0,5,3,2,T,0,26,26,26,,,,,,,None,210.82271653465023,None,209.84860197700732,None,210.32314244241434,None,1,[0.008644516469757946],[0.5174307883848996],210.82271653465023,None,[2 2 1 2 3 0 1 3],space,0,1.1503329644854148,0.0026619876678068977,None,210.83937055450747,None,1,211.98838791987032,None,None,212.48796271767637,None,,,,,,,,,,,,,,,,,,,,,,,,,,,,,,,,,,,,,,,,,,,,,,16_Lizz,16,24,F,2022-12-08_13h10.24.388,dynamic target,2022.1.3,120.10176529272292,
0,6,4,2,T,0,27,27,27,,,,,,,None,213.51208801922735,None,212.52959866531796,None,213.0125001363033,None,1,[0.008621425084811563],[0.517012577748801],213.51208801922735,None,[2 1 2 0 3 1 0 2],space,0,0.8770053740649928,0.0030276012603280833,None,213.52873851123422,None,1,214.40299213032768,None,None,214.9025682109885,None,,,,,,,,,,,,,,,,,,,,,,,,,,,,,,,,,,,,,,,,,,,,,,16_Lizz,16,24,F,2022-12-08_13h10.24.388,dynamic target,2022.1.3,120.10176529272292,
0,7,4,2,T,0,28,28,28,,,,,,,None,215.935021805323,None,214.95252315071684,215.95167229732988,215.42711909958985,None,2,"[0.00936580153097566, 0.8000221933864395]","[0.5165254136725252, 1.3084467002731799]",215.935021805323,None,[0 1 1 1 0 0 2 0],space,0,0.6786115723059538,0.002446147362661577,None,216.73433073149022,None,1,217.417084610041,None,None,217.91666004927433,None,,,,,,,,,,,,,,,,,,,,,,,,,,,,,,,,,,,,,,,,,,,,,,16_Lizz,16,24,F,2022-12-08_13h10.24.388,dynamic target,2022.1.3,120.10176529272292,
0,8,4,2,T,0,29,29,29,,,,,,,None,218.94911332289507,None,217.9750026138165,None,218.44953666494985,None,1,[0.009326674462272422],[0.517289353653041],218.94911332289507,None,[3 3 2 1 0 3 0 3],space,0,1.1986853621087903,0.0022373627584784117,None,218.9657901134235,None,1,220.16474388126403,None,None,220.66433182833097,None,,,,,,,,,,,,,,,,,,,,,,,,,,,,,,,,,,,,,,,,,,,,,,16_Lizz,16,24,F,2022-12-08_13h10.24.388,dynamic target,2022.1.3,120.10176529272292,
0,1,1,2,T,0,30,30,30,,,,,,,None,221.69674693702405,None,220.71426912880702,None,221.1971888804719,None,1,[0.009120455567426689],[0.5174147527009154],221.69674693702405,None,[2 2 2 3 2 0 2 0],space,0,0.9801953205890186,0.0026449898430200847,None,221.713424048266,None,1,222.69591147789356,None,None,223.195506801375,None,,,,,,,,,,,,,,,,,,,,,,,,,,,,,,,,,,,,,,,,,,,,,,16_Lizz,16,24,F,2022-12-08_13h10.24.388,dynamic target,2022.1.3,120.10176529272292,
0,2,3,2,T,0,31,31,31,,,,,,,None,224.2279347386152,None,223.2538217845406,None,223.72836224994762,None,1,[0.008632008636141109],[0.5173461199738085],224.2279347386152,None,[1 0 2 1 1 3 2 2],space,0,0.6402272765001271,0.0027097740057797637,None,224.24459036204075,None,1,224.88570758738,None,None,225.385288478746,None,,,,,,,,,,,,,,,,,,,,,,,,,,,,,,,,,,,,,,,,,,,,,,16_Lizz,16,24,F,2022-12-08_13h10.24.388,dynamic target,2022.1.3,120.10176529272292,
0,4,2,0,T,0,32,32,32,,,,,,,None,226.41773181024269,None,225.44359319907403,None,225.91815739729304,None,1,[0.00972115228569237],[0.5173525342472658],226.41773181024269,None,[1 2 1 1 3 2 2 3],space,0,2.20986287520509,0.0022501913056203193,None,226.43437620868963,None,1,228.6491581586672,None,None,229.14872076935362,None,,,,,,,,,,,,,,,,,,,,,,,,,,,,,,,,,,,,,,,,,,,,,,16_Lizz,16,24,F,2022-12-08_13h10.24.388,dynamic target,2022.1.3,120.10176529272292,
0,5,2,2,T,0,33,33,33,,,,,,,None,230.18118494723944,None,229.1987388896764,None,229.68160957214877,None,1,[0.008673059986904263],[0.5173352157087265],230.18118494723944,None,[2 3 1 1 0 1 2 2],space,0,0.7195936489013093,0.002821703079462168,None,230.19783640138735,None,1,230.92221923602142,None,None,231.42179980667387,None,,,,,,,,,,,,,,,,,,,,,,,,,,,,,,,,,,,,,,,,,,,,,,16_Lizz,16,24,F,2022-12-08_13h10.24.388,dynamic target,2022.1.3,120.10176529272292,
0,4,4,1,T,0,34,34,34,,,,,,,None,232.45424512659528,None,231.48009169845477,None,231.94635229884352,None,1,[0.009105702738224863],[0.5164824380397022],232.45424512659528,None,[0 1 0 3 3 3 3 2],space,0,2.470435682662128,0.003000019884439098,None,232.4625717516676,None,1,234.93545861735197,None,None,235.43505875153855,None,,,,,,,,,,,,,,,,,,,,,,,,,,,,,,,,,,,,,,,,,,,,,,16_Lizz,16,24,F,2022-12-08_13h10.24.388,dynamic target,2022.1.3,120.10176529272292,
0,3,4,1,T,0,35,35,35,,,,,,,None,236.4674927823387,None,235.4933730932769,None,235.96791099297434,None,1,[0.008626235789961356],[0.5169586978511234],236.4674927823387,None,[3 3 3 1 1 2 1 1],space,0,1.249086799419274,0.00299969917045928,None,236.48413429436255,None,1,237.7330684024546,None,None,238.23264416240167,None,,,,,,,,,,,,,,,,,,,,,,,,,,,,,,,,,,,,,,,,,,,,,,16_Lizz,16,24,F,2022-12-08_13h10.24.388,dynamic target,2022.1.3,120.10176529272292,
0,2,4,1,T,0,36,36,36,,,,,,,None,239.26509390817205,None,238.28268505339565,None,238.76554098303882,None,1,[0.00868652996155106],[0.5175305303387177],239.26509390817205,None,[0 1 2 1 3 2 1 1],space,0,0.7861622627060569,0.002472766597975351,None,239.2817450416062,None,1,240.07274010710557,None,None,240.57231298062956,None,,,,,,,,,,,,,,,,,,,,,,,,,,,,,,,,,,,,,,,,,,,,,,16_Lizz,16,24,F,2022-12-08_13h10.24.388,dynamic target,2022.1.3,120.10176529272292,
0,3,3,2,T,0,37,37,37,,,,,,,None,241.6047742720923,None,240.6223160274094,None,241.10521332911708,None,1,[0.008642592187698028],[0.5174821025732399],241.6047742720923,None,[2 2 2 3 2 2 0 0],space,0,1.1818280097797924,0.002569622128703486,None,241.62141514268865,None,1,242.8037399063387,None,None,243.30331374200372,None,,,,,,,,,,,,,,,,,,,,,,,,,,,,,,,,,,,,,,,,,,,,,,16_Lizz,16,24,F,2022-12-08_13h10.24.388,dynamic target,2022.1.3,120.10176529272292,
0,4,2,2,T,0,38,38,38,,,,,,,None,244.33575418707733,None,243.35332929661718,None,243.83619067839277,None,1,[0.008645478610787904],[0.5172056473829798],244.33575418707733,None,[2 2 2 2 3 1 1 2],space,0,0.6277993007743135,0.0023460846953184955,None,244.35241333835347,None,1,244.98521702373864,None,None,245.48478444512997,None,,,,,,,,,,,,,,,,,,,,,,,,,,,,,,,,,,,,,,,,,,,,,,16_Lizz,16,24,F,2022-12-08_13h10.24.388,dynamic target,2022.1.3,120.10176529272292,
0,5,1,2,T,0,39,39,39,,,,,,,None,246.51723354947308,None,245.53479711332034,None,246.01766074009174,None,1,[0.008707376350457707],[0.51736856993125],246.51723354947308,None,[0 1 0 1 1 2 2 0],space,0,0.6214777134725864,0.0027694267498645786,None,246.53387794792002,None,1,247.15835334052167,None,None,247.65792942118227,None,,,,,,,,,,,,,,,,,,,,,,,,,,,,,,,,,,,,,,,,,,,,,,16_Lizz,16,24,F,2022-12-08_13h10.24.388,dynamic target,2022.1.3,120.10176529272292,
0,6,2,2,T,0,40,40,40,,,,,,,None,248.69038718479464,None,247.7162280479506,None,248.19082431753736,None,1,[0.009482862023105554],[0.5175013453938391],248.69038718479464,None,[2 3 2 2 2 0 3 3],space,0,0.977445842230054,0.0025997692143846507,None,248.7070319039551,None,1,249.68953184141606,None,None,250.18910567708107,None,,,,,,,,,,,,,,,,,,,,,,,,,,,,,,,,,,,,,,,,,,,,,,16_Lizz,16,24,F,2022-12-08_13h10.24.388,dynamic target,2022.1.3,120.10176529272292,
0,7,4,2,T,0,41,41,41,,,,,,,None,251.22155702641976,None,250.23906157895044,None,250.7219752370554,None,1,[0.008690057811691076],[0.5174044898631109],251.22155702641976,None,[0 0 3 1 1 0 2 0],space,0,0.7815048586780904,0.002719716130059169,None,251.23821425341384,None,1,252.02085184118505,None,None,252.52044075039302,None,,,,,,,,,,,,,,,,,,,,,,,,,,,,,,,,,,,,,,,,,,,,,,16_Lizz,16,24,F,2022-12-08_13h10.24.388,dynamic target,2022.1.3,120.10176529272292,
0,8,3,2,T,0,42,42,42,,,,,,,None,253.55291390826187,None,252.57039216227076,None,253.05331800749582,None,1,[0.008611482960759531],[0.5175536217232093],253.55291390826187,None,[2 3 0 2 2 3 1 3],space,0,0.8500484273106395,0.002438450234649281,None,253.5695486852985,None,1,254.41881902961018,None,None,254.91840505239506,None,,,,,,,,,,,,,,,,,,,,,,,,,,,,,,,,,,,,,,,,,,,,,,16_Lizz,16,24,F,2022-12-08_13h10.24.388,dynamic target,2022.1.3,120.10176529272292,
0,1,4,2,T,0,43,43,43,,,,,,,None,255.95084453532763,None,254.9683535778497,None,255.45126691524115,None,1,[0.008598975127370068],[0.5172220037804891],255.95084453532763,None,[3 2 2 1 0 3 1 0],space,0,0.5959527532891116,0.0026032970647520415,None,255.9675187601465,None,1,256.5669598844918,None,None,257.06655905653736,None,,,,,,,,,,,,,,,,,,,,,,,,,,,,,,,,,,,,,,,,,,,,,,16_Lizz,16,24,F,2022-12-08_13h10.24.388,dynamic target,2022.1.3,120.10176529272292,
0,2,1,2,T,0,44,44,44,,,,,,,None,258.09901072658977,None,257.1165874396977,None,257.5994363136399,None,1,[0.008657024302920036],[0.5173105207557],258.09901072658977,None,[1 3 2 2 0 1 3 1],space,0,0.5433573137090661,0.0025455686029545177,None,258.11567084000694,None,1,258.656870039762,None,None,259.15644066829043,None,,,,,,,,,,,,,,,,,,,,,,,,,,,,,,,,,,,,,,,,,,,,,,16_Lizz,16,24,F,2022-12-08_13h10.24.388,dynamic target,2022.1.3,120.10176529272292,
0,3,3,2,T,0,45,45,45,,,,,,,None,260.1888929797701,None,259.1980759745045,None,259.6893121525468,None,1,[0.008624311507901439],[0.517671965070349],260.1888929797701,None,[1 3 2 0 2 3 1 3],space,0,0.5028707397459584,0.002397078170133682,None,260.2055463582001,None,1,260.7134429703731,None,None,261.21301905103394,None,,,,,,,,,,,,,,,,,,,,,,,,,,,,,,,,,,,,,,,,,,,,,,16_Lizz,16,24,F,2022-12-08_13h10.24.388,dynamic target,2022.1.3,120.10176529272292,
0,3,4,0,T,0,46,46,46,,,,,,,None,262.24546943823157,None,261.2630333227926,None,261.74589598742295,None,1,[0.008673059987131637],[0.5172021195326124],262.24546943823157,None,[2 3 3 1 1 3 2 0],space,0,0.9408209816601811,0.002646914125080002,None,262.2621180059564,None,1,263.2029844973422,None,None,263.702566671563,None,,,,,,,,,,,,,,,,,,,,,,,,,,,,,,,,,,,,,,,,,,,,,,16_Lizz,16,24,F,2022-12-08_13h10.24.388,dynamic target,2022.1.3,120.10176529272292,
0,4,4,2,T,0,47,47,47,,,,,,,None,264.73500775806383,None,263.75257517047544,None,264.2354359108235,None,1,[0.008400132647238934],[0.5169449071631789],264.73500775806383,None,[1 1 0 0 0 0 2 3],space,0,1.3951298661347664,0.0026873240485656424,None,264.75167621003675,None,1,266.1504746883145,None,None,266.6500424304196,None,,,,,,,,,,,,,,,,,,,,,,,,,,,,,,,,,,,,,,,,,,,,,,16_Lizz,16,24,F,2022-12-08_13h10.24.388,dynamic target,2022.1.3,120.10176529272292,
0,5,2,2,T,0,48,48,48,,,,,,,None,267.6824985904634,None,266.6916786987747,None,267.1829257810821,None,1,[0.009535459066455587],[0.5176931321732354],267.6824985904634,None,[3 0 3 0 1 0 2 0],space,0,0.5590924888799691,0.0023464054090709396,None,267.6991461960472,None,1,268.2570013399418,None,None,268.7565745341793,None,,,,,,,,,,,,,,,,,,,,,,,,,,,,,,,,,,,,,,,,,,,,,,16_Lizz,16,24,F,2022-12-08_13h10.24.388,dynamic target,2022.1.3,120.10176529272292,
0,6,3,2,T,0,49,49,49,,,,,,,None,269.7890326826481,None,268.8065387746044,None,269.2811257434944,None,1,[0.00863425363195347],[0.5164301617101046],269.7890326826481,None,[1 1 0 3 3 3 2 0],space,0,0.5738116431195976,0.002693417608497839,None,269.7973557798698,None,1,270.37186141577126,None,None,270.8714352514363,None,,,,,,,,,,,,,,,,,,,,,,,,,,,,,,,,,,,,,,,,,,,,,,16_Lizz,16,24,F,2022-12-08_13h10.24.388,dynamic target,2022.1.3,120.10176529272292,
0,7,3,2,T,0,50,50,50,,,,,,,None,271.9039007121769,None,270.9297220117985,None,271.4043141121074,None,1,[0.00873624058135647],[0.5170504219629493],271.9039007121769,None,[1 3 2 1 0 3 1 3],space,0,0.6746360055567493,0.0029522335462388583,None,271.92054382776905,None,1,272.5949617164083,None,None,273.09453683492814,None,,,,,,,,,,,,,,,,,,,,,,,,,,,,,,,,,,,,,,,,,,,,,,16_Lizz,16,24,F,2022-12-08_13h10.24.388,dynamic target,2022.1.3,120.10176529272292,
0,8,4,2,T,0,51,51,51,,,,,,,None,274.12698722212554,None,273.15286881591874,None,273.62741441274443,None,1,[0.007815150898977663],[0.5165645407410011],274.12698722212554,None,[0 0 0 3 0 3 0 3],space,0,0.5473341633130531,0.0025728292653184326,None,274.14364733554294,None,1,274.6931725830857,None,None,275.1927646994303,None,,,,,,,,,,,,,,,,,,,,,,,,,,,,,,,,,,,,,,,,,,,,,,16_Lizz,16,24,F,2022-12-08_13h10.24.388,dynamic target,2022.1.3,120.10176529272292,
0,1,2,2,T,0,52,52,52,,,,,,,None,276.22519687009105,None,275.25107839974135,None,275.7172982694931,None,1,[0.009345596569119152],[0.516498153009934],276.22519687009105,None,[2 0 2 3 2 2 2 1],space,0,0.5373089744609842,0.0027306203949137853,None,276.2335218915948,None,1,276.77472942990585,None,None,277.27430134128883,None,,,,,,,,,,,,,,,,,,,,,,,,,,,,,,,,,,,,,,,,,,,,,,16_Lizz,16,24,F,2022-12-08_13h10.24.388,dynamic target,2022.1.3,120.10176529272292,
0,2,2,2,T,0,53,53,53,,,,,,,None,278.3067504456317,None,277.3159379303577,None,277.8071779569641,None,1,[0.00906048210958943],[0.5176004459203796],278.3067504456317,None,[3 3 3 3 1 1 0 2],space,0,0.5912716164489211,0.002403492443590949,None,278.3234051069162,None,1,278.91456636624343,None,None,279.41414148476326,None,,,,,,,,,,,,,,,,,,,,,,,,,,,,,,,,,,,,,,,,,,,,,,16_Lizz,16,24,F,2022-12-08_13h10.24.388,dynamic target,2022.1.3,120.10176529272292,
0,3,4,2,T,0,54,54,54,,,,,,,None,280.4465998898029,None,279.4724766728907,None,279.94704407824634,None,1,[0.008842717522611565],[0.5175087218085537],280.4465998898029,None,[0 3 3 0 3 3 3 0],space,0,0.546745333000672,0.0025378714749422215,None,280.4632442882498,None,1,281.01277434649774,None,None,281.5123504271586,None,,,,,,,,,,,,,,,,,,,,,,,,,,,,,,,,,,,,,,,,,,,,,,16_Lizz,16,24,F,2022-12-08_13h10.24.388,dynamic target,2022.1.3,120.10176529272292,
0,4,2,2,T,0,55,55,55,,,,,,,None,282.54481139790755,None,281.57068721885435,None,282.04524307851784,None,1,[0.00953706263476306],[0.5175985216380923],282.54481139790755,None,[0 2 1 1 2 2 1 3],space,0,0.5286269344910579,0.002422735264417497,None,282.56145323064516,None,1,283.0943533225616,None,None,283.59389636971366,None,,,,,,,,,,,,,,,,,,,,,,,,,,,,,,,,,,,,,,,,,,,,,,16_Lizz,16,24,F,2022-12-08_13h10.24.388,dynamic target,2022.1.3,120.10176529272292,
0,5,1,2,T,0,56,56,56,,,,,,,None,284.6263550954668,None,283.6438907572242,284.6430123224609,284.12677907894886,None,2,"[0.008883127445869832, 0.8003297578034108]","[0.5081326574400009, 1.308197505745511]",284.6263550954668,None,[0 1 3 0 2 1 0 3],space,0,0.5362502986106392,0.0027161882794644043,None,285.43400578439196,None,1,285.97520305986495,None,None,286.47477593338897,None,,,,,,,,,,,,,,,,,,,,,,,,,,,,,,,,,,,,,,,,,,,,,,16_Lizz,16,24,F,2022-12-08_13h10.24.388,dynamic target,2022.1.3,120.10176529272292,
0,6,3,2,T,0,57,57,57,,,,,,,None,287.4988925756709,None,286.51645197024027,None,286.9993274634178,None,1,[0.008578770165740934],[0.5175253989198154],287.4988925756709,None,[2 2 2 2 1 1 3 2],space,0,0.6624905785809005,0.0024798222989375063,None,287.5155539719426,None,0,288.1899869341248,None,None,288.6895537140889,None,,,,,,,,,,,,,,,,,,,,,,,,,,,,,,,,,,,,,,,,,,,,,,16_Lizz,16,24,F,2022-12-08_13h10.24.388,dynamic target,2022.1.3,120.10176529272292,
0,4,2,0,T,0,58,58,58,,,,,,,None,289.7220015355772,None,288.7478856950795,None,289.22242872619586,None,1,[0.008660231439762356],[0.5173297635762992],289.7220015355772,None,[1 2 2 0 1 3 2 2],space,0,1.8947536689906883,0.0025510207356091996,None,289.738656838289,None,1,291.6370448030593,None,None,292.13661318659194,None,,,,,,,,,,,,,,,,,,,,,,,,,,,,,,,,,,,,,,,,,,,,,,16_Lizz,16,24,F,2022-12-08_13h10.24.388,dynamic target,2022.1.3,120.10176529272292,
0,5,4,2,T,0,59,59,59,,,,,,,None,293.1690565180886,None,292.1866255340685,None,292.669491085122,None,1,[0.008614048670324337],[0.5174859511373597],293.1690565180886,None,[2 0 2 3 1 1 3 0],space,0,1.5518825246906545,0.0026392169968403323,None,293.1857284979119,None,1,294.7343897428068,None,space,295.24225909431743,None,0.5412986526118857,,,,,,,,,,,,,,,,,,,,,,,,,,,,,,,,,,,,,,,,,,,,,16_Lizz,16,24,F,2022-12-08_13h10.24.388,dynamic target,2022.1.3,120.10176529272292,
0,6,3,2,T,0,60,60,60,,,,,,,None,296.8242626952906,None,295.85014044051945,296.849240197226,296.3246946966144,None,3,"[0.024855951451627334, 0.25790030038047007, 0.274554961665217]","[0.033131967905546844, 0.2663033194507989, 0.7829060251197006]",296.8242626952906,None,[2 1 3 2 0 1 3 0],space,0,3.038282981900238,0.002528891491692775,None,297.10736403503984,None,1,300.1464314509792,None,None,300.6460084937811,None,,,,,,,,,,,,,,,,,,,,,,,,,,,,,,,,,,,,,,,,,,,,,,16_Lizz,16,24,F,2022-12-08_13h10.24.388,dynamic target,2022.1.3,120.10176529272292,
0,5,4,1,T,0,61,61,61,,,,,,,None,301.67845535312813,None,300.6876684949484,None,301.17890114514034,None,1,[0.009351369415298905],[0.5176498358266599],301.67845535312813,None,[0 0 2 1 0 3 2 3],space,0,1.3615229212725808,0.002333256148176588,None,301.69511065584015,None,1,303.0606107158137,None,None,303.5601848721925,None,,,,,,,,,,,,,,,,,,,,,,,,,,,,,,,,,,,,,,,,,,,,,,16_Lizz,16,24,F,2022-12-08_13h10.24.388,dynamic target,2022.1.3,120.10176529272292,
0,6,1,2,T,0,62,62,62,,,,,,,None,304.5926403908088,None,303.61851268390524,None,304.0930759199832,None,1,[0.008659590012484841],[0.5170844176127503],304.5926403908088,None,[0 3 1 1 0 3 0 1],space,0,1.3606223572653562,0.0028072709635580395,None,304.6092937692388,None,1,305.97481467560124,None,None,306.4743946048262,None,,,,,,,,,,,,,,,,,,,,,,,,,,,,,,,,,,,,,,,,,,,,,,16_Lizz,16,24,F,2022-12-08_13h10.24.388,dynamic target,2022.1.3,120.10176529272292,
0,7,4,2,T,0,63,63,63,,,,,,,None,307.50681131708757,None,306.52438225734954,None,307.00723754556543,None,1,[0.009209934683440224],[0.5174875547058946],307.50681131708757,None,[1 1 3 1 1 2 1 0],space,0,0.8942174357216572,0.002597203504819845,None,307.5234701476502,None,1,308.4226922886962,None,None,308.9222606722286,None,,,,,,,,,,,,,,,,,,,,,,,,,,,,,,,,,,,,,,,,,,,,,,16_Lizz,16,24,F,2022-12-08_13h10.24.388,dynamic target,2022.1.3,120.10176529272292,
0,8,1,2,T,0,64,64,64,,,,,,,None,309.9547341508112,None,308.96391554197726,None,309.4551507578785,None,1,[0.008647402892620448],[0.5174926861245694],309.9547341508112,None,[0 3 3 0 2 2 2 1],space,0,0.8939971054248872,0.0025548692997290345,None,309.97137341783923,None,1,310.8706067838639,None,None,311.3701655459862,None,,,,,,,,,,,,,,,,,,,,,,,,,,,,,,,,,,,,,,,,,,,,,,16_Lizz,16,24,F,2022-12-08_13h10.24.388,dynamic target,2022.1.3,120.10176529272292,
0,1,2,2,T,0,65,65,65,,,,,,,None,312.4026303652993,None,311.42851580765637,None,311.9030572352044,None,1,[0.00859384370846783],[0.5170391969843422],312.4026303652993,None,[2 2 2 0 3 2 1 3],space,0,0.6693506441476984,0.002570904983485889,None,312.4192818194472,None,1,313.0853890545552,None,None,313.58495455166474,None,,,,,,,,,,,,,,,,,,,,,,,,,,,,,,,,,,,,,,,,,,,,,,16_Lizz,16,24,F,2022-12-08_13h10.24.388,dynamic target,2022.1.3,120.10176529272292,
0,2,3,2,T,0,66,66,66,,,,,,,None,314.61740493886236,None,313.6432653655527,None,314.11783116734,None,1,[0.008606030828332223],[0.5174314298121772],314.61740493886236,None,[0 1 1 1 2 3 2 1],space,0,0.6144714024685527,0.0026257470221935364,None,314.6340788429677,None,1,315.2501973992687,None,None,315.7497738006431,None,,,,,,,,,,,,,,,,,,,,,,,,,,,,,,,,,,,,,,,,,,,,,,16_Lizz,16,24,F,2022-12-08_13h10.24.388,dynamic target,2022.1.3,120.10176529272292,
0,3,1,2,T,0,67,67,67,,,,,,,None,316.7822264328365,None,315.7997774888504,None,316.28265490631,None,1,[0.008642912901223099],[0.5175010246800866],316.7822264328365,None,[2 3 1 2 1 1 1 1],space,0,0.6248513006485155,0.0026068249155741796,None,316.79886698271935,None,1,317.42334141317997,None,None,317.9229168524133,None,,,,,,,,,,,,,,,,,,,,,,,,,,,,,,,,,,,,,,,,,,,,,,16_Lizz,16,24,F,2022-12-08_13h10.24.388,dynamic target,2022.1.3,120.10176529272292,
0,4,4,2,T,0,68,68,68,,,,,,,None,318.9553816717264,None,317.9645544036232,None,318.4557918645203,None,1,[0.00870865920524011],[0.5176633058010793],318.9553816717264,None,[3 1 3 2 0 1 0 0],space,0,0.5484765454332319,0.0024009267342535168,None,318.97201997661364,None,1,319.5215468277247,None,None,320.02112419124035,None,,,,,,,,,,,,,,,,,,,,,,,,,,,,,,,,,,,,,,,,,,,,,,16_Lizz,16,24,F,2022-12-08_13h10.24.388,dynamic target,2022.1.3,120.10176529272292,
0,3,2,1,T,0,69,69,69,,,,,,,None,321.05359061412173,None,320.0627617424502,None,320.5540117111807,None,1,[0.009533214070643226],[0.5175183432188533],321.05359061412173,None,[2 3 1 1 0 1 0 1],space,0,2.7699508277241875,0.0025551900130267313,None,321.0702285982952,None,1,323.8428592778939,None,None,324.34243311355897,None,,,,,,,,,,,,,,,,,,,,,,,,,,,,,,,,,,,,,,,,,,,,,,16_Lizz,16,24,F,2022-12-08_13h10.24.388,dynamic target,2022.1.3,120.10176529272292,
0,4,3,2,T,0,70,70,70,,,,,,,None,325.3748940843079,None,324.38405815693545,None,324.87530684281114,None,1,[0.008632329349666179],[0.5175568288600516],325.3748940843079,None,[0 2 3 2 0 1 0 2],space,0,1.2643319240901292,0.0025067622477763507,None,325.39153912418215,None,1,326.65712628999063,None,None,327.1566953149505,None,,,,,,,,,,,,,,,,,,,,,,,,,,,,,,,,,,,,,,,,,,,,,,16_Lizz,16,24,F,2022-12-08_13h10.24.388,dynamic target,2022.1.3,120.10176529272292,
0,5,3,2,T,0,71,71,71,,,,,,,None,328.1891511542806,None,327.1983190754722,None,327.6895735341941,None,1,[0.009604412507087545],[0.5178576582898131],328.1891511542806,None,[0 1 0 2 2 0 0 0],space,0,0.5935137257699807,0.002264944135049518,None,328.2058010048602,None,1,328.79695328420416,None,None,329.2965335341429,None,,,,,,,,,,,,,,,,,,,,,,,,,,,,,,,,,,,,,,,,,,,,,,16_Lizz,16,24,F,2022-12-08_13h10.24.388,dynamic target,2022.1.3,120.10176529272292,
0,7,4,0,T,0,72,72,72,,,,,,,None,330.32898263848574,None,329.33816563322034,None,329.8294178469464,None,1,[0.008676267123746584],[0.5175831273818403],330.32898263848574,None,[2 3 3 3 1 3 3 3],space,0,1.2224903348385396,0.002325879733916736,None,330.34560811482584,None,1,331.5695906987903,None,None,332.06916677945094,None,,,,,,,,,,,,,,,,,,,,,,,,,,,,,,,,,,,,,,,,,,,,,,16_Lizz,16,24,F,2022-12-08_13h10.24.388,dynamic target,2022.1.3,120.10176529272292,
0,8,1,2,T,0,73,73,73,,,,,,,None,333.10162742948637,None,332.12750741971104,None,332.6020575065281,None,1,[0.03362554625550729],[0.5340697346991874],333.10162742948637,None,[1 2 3 2 0 2 1 1],space,0,0.721085608930025,0.002547172171261991,None,333.1349194335171,None,1,333.85930226815117,None,None,334.3588761038162,None,,,,,,,,,,,,,,,,,,,,,,,,,,,,,,,,,,,,,,,,,,,,,,16_Lizz,16,24,F,2022-12-08_13h10.24.388,dynamic target,2022.1.3,120.10176529272292,
0,1,1,2,T,0,74,74,74,,,,,,,None,335.3913255288728,None,334.40884162709585,335.4079651166146,334.89176715160716,None,3,"[0.008650289315937698, 0.8086535605955305, 1.5578083196978696]","[0.5081111696235894, 1.3170431096912125, 2.0656799162040897]",335.3913255288728,None,[3 2 3 1 1 3 0 0],space,0,0.5795104044591426,0.002854095160955694,None,336.95664111433894,None,1,337.5395318093447,None,None,338.0390520858256,None,,,,,,,,,,,,,,,,,,,,,,,,,,,,,,,,,,,,,,,,,,,,,,16_Lizz,16,24,F,2022-12-08_13h10.24.388,dynamic target,2022.1.3,120.10176529272292,
0,2,1,2,T,0,75,75,75,,,,,,,None,339.07151562228387,None,338.09735424044425,None,338.57194569932585,None,1,[0.008598333700092553],[0.5176078223348668],339.07151562228387,None,[2 3 1 0 0 1 2 0],space,0,0.622807071666557,0.0024390916619267955,None,339.08816611429074,None,1,339.71263605475997,None,None,340.21220956971126,None,,,,,,,,,,,,,,,,,,,,,,,,,,,,,,,,,,,,,,,,,,,,,,16_Lizz,16,24,F,2022-12-08_13h10.24.388,dynamic target,2022.1.3,120.10176529272292,
0,3,1,2,T,0,76,76,76,,,,,,,None,341.24466188119095,None,340.2538407066477,341.2529837597008,340.74508554395925,None,1,[0.10018902864158008],[0.6090532339806032],341.24466188119095,None,[2 0 2 1 3 1 0 0],space,0,0.8221585244673406,0.002359233956440221,None,341.3529065959899,None,1,342.1771965519431,None,None,342.67674184409077,None,,,,,,,,,,,,,,,,,,,,,,,,,,,,,,,,,,,,,,,,,,,,,,16_Lizz,16,24,F,2022-12-08_13h10.24.388,dynamic target,2022.1.3,120.10176529272292,
0,4,2,2,T,0,77,77,77,,,,,,,None,343.7092108326817,None,342.718406976677,343.7175468225935,343.2096498897065,None,1,[0.10849134361706092],[0.6090766460790746],343.7092108326817,None,[1 0 2 1 3 1 3 3],space,0,0.6455655556658257,0.0026087491974067234,None,343.81746260318164,None,1,344.4669065177359,None,None,344.9664825983965,None,,,,,,,,,,,,,,,,,,,,,,,,,,,,,,,,,,,,,,,,,,,,,,16_Lizz,16,24,F,2022-12-08_13h10.24.388,dynamic target,2022.1.3,120.10176529272292,
0,3,1,1,T,0,78,78,78,,,,,,,None,345.9989172706239,None,345.01648596589007,None,345.4993572897897,None,1,[0.009109230588592254],[0.5176511186812149],345.9989172706239,None,[0 2 3 3 0 3 0 2],space,0,1.9682298139866816,0.0024365259525893634,None,346.015591495443,None,1,347.9889058724598,None,None,348.48845693745386,None,,,,,,,,,,,,,,,,,,,,,,,,,,,,,,,,,,,,,,,,,,,,,,16_Lizz,16,24,F,2022-12-08_13h10.24.388,dynamic target,2022.1.3,120.10176529272292,
0,4,2,2,T,0,79,79,79,,,,,,,None,349.5209207946259,None,348.530103147933,None,349.0213547202318,None,1,[0.008642912901223099],[0.5177909498447661],349.5209207946259,None,[0 0 0 0 2 1 1 2],space,0,0.6686935018219629,0.0021809171510085434,None,349.5375818701841,None,1,350.21199975882337,None,None,350.7115713494926,None,,,,,,,,,,,,,,,,,,,,,,,,,,,,,,,,,,,,,,,,,,,,,,16_Lizz,16,24,F,2022-12-08_13h10.24.388,dynamic target,2022.1.3,120.10176529272292,
0,5,3,2,T,0,80,80,80,,,,,,,None,351.744023019545,None,350.75320954213,None,351.2444502101637,None,1,[0.009476127035895843],[0.5176344415701806],351.744023019545,None,[2 1 1 0 1 0 0 1],space,0,0.621801955000592,0.0023887396143891237,None,351.76067768082953,None,1,352.3851434520209,None,None,352.88472113625005,None,,,,,,,,,,,,,,,,,,,,,,,,,,,,,,,,,,,,,,,,,,,,,,16_Lizz,16,24,F,2022-12-08_13h10.24.388,dynamic target,2022.1.3,120.10176529272292,
0,6,1,2,T,0,81,81,81,,,,,,,None,353.91717280630246,None,352.94300661375746,None,353.41759358264767,None,1,[0.008592881567437871],[0.5168307330936841],353.91717280630246,None,[3 1 3 1 3 1 0 2],space,0,0.5288382848045785,0.00298879490537729,None,353.9338200911725,None,1,354.466698374559,None,None,354.9662767002154,None,,,,,,,,,,,,,,,,,,,,,,,,,,,,,,,,,,,,,,,,,,,,,,16_Lizz,16,24,F,2022-12-08_13h10.24.388,dynamic target,2022.1.3,120.10176529272292,
0,7,4,2,T,0,82,82,82,,,,,,,None,355.99872259742165,None,355.0079023850194,None,355.49914914661304,None,1,[0.008642592187470655],[0.5174689533123455],355.99872259742165,None,[2 3 0 2 0 2 2 0],space,0,0.6876499251716268,0.0025699428429106774,None,356.0153766172789,None,1,356.7064597507542,None,None,357.2060361521286,None,,,,,,,,,,,,,,,,,,,,,,,,,,,,,,,,,,,,,,,,,,,,,,16_Lizz,16,24,F,2022-12-08_13h10.24.388,dynamic target,2022.1.3,120.10176529272292,
0,8,3,2,T,0,83,83,83,,,,,,,None,358.2384714657833,None,357.2643649259826,None,357.7389012221115,None,1,[0.008636177914013388],[0.5171825559982608],358.2384714657833,None,[1 3 1 2 3 3 2 3],space,0,0.6874279913067767,0.002914710045843094,None,358.25512773063633,None,1,358.9462111848254,None,None,359.4457795683578,None,,,,,,,,,,,,,,,,,,,,,,,,,,,,,,,,,,,,,,,,,,,,,,16_Lizz,16,24,F,2022-12-08_13h10.24.388,dynamic target,2022.1.3,120.10176529272292,
0,1,1,2,T,0,84,84,84,,,,,,,None,360.4782437462436,None,359.5040935893826,360.50321483390553,359.9786260369474,None,2,"[0.008567865900658944, 0.7334901409408303]","[0.4993133520160882, 1.2410564180258916]",360.4782437462436,None,[3 1 0 2 1 0 2 2],space,0,0.522636965132051,0.002508686529836268,None,361.21926873432903,None,1,361.7438161592229,None,None,362.24339544702036,None,,,,,,,,,,,,,,,,,,,,,,,,,,,,,,,,,,,,,,,,,,,,,,16_Lizz,16,24,F,2022-12-08_13h10.24.388,dynamic target,2022.1.3,120.10176529272292,
0,8,3,1,T,0,85,85,85,,,,,,,None,363.275838778517,None,362.3017277487247,None,362.77626628984945,None,1,[0.00867177713212186],[0.5172633758450047],363.275838778517,None,[1 3 0 1 2 0 1 2],space,0,1.2024001886379665,0.002664232663846633,None,363.29249279837427,None,1,364.49981366535326,None,None,364.99938557673624,None,,,,,,,,,,,,,,,,,,,,,,,,,,,,,,,,,,,,,,,,,,,,,,16_Lizz,16,24,F,2022-12-08_13h10.24.388,dynamic target,2022.1.3,120.10176529272292,
0,1,1,2,T,0,86,86,86,,,,,,,None,366.03182538038254,None,365.0576797135129,None,365.53224391173194,None,1,[0.008679794974341348],[0.5173191800249697],366.03182538038254,None,[0 0 2 0 0 0 2 2],space,0,0.5415215486177658,0.0026930968949727685,None,366.04848292809015,None,1,366.58967475143095,None,None,367.0892501906643,None,,,,,,,,,,,,,,,,,,,,,,,,,,,,,,,,,,,,,,,,,,,,,,16_Lizz,16,24,F,2022-12-08_13h10.24.388,dynamic target,2022.1.3,120.10176529272292,
0,2,1,2,T,0,87,87,87,,,,,,,None,368.1217012192892,None,367.1391948675548,368.1383385620354,367.6221284099081,None,2,"[0.0086339329184284, 0.7086992943659425]","[0.49151038823674753, 1.2164894295979138]",368.1217012192892,None,[1 0 2 2 0 3 3 2],space,0,0.5841264364225935,0.002828758780424323,None,368.83775447828543,None,1,369.42059033125224,None,None,369.9201664119131,None,,,,,,,,,,,,,,,,,,,,,,,,,,,,,,,,,,,,,,,,,,,,,,16_Lizz,16,24,F,2022-12-08_13h10.24.388,dynamic target,2022.1.3,120.10176529272292,
0,7,1,0,T,0,88,88,88,,,,,,,None,370.952617440538,None,369.9784576622667,None,370.453023464054,None,1,[0.008675304982716625],[0.5174269398207798],370.952617440538,None,[2 2 3 2 0 3 2 1],space,0,1.6045796305063504,0.0025311364875051368,None,370.9692660082628,None,1,372.57623267905615,None,None,373.07580330758435,None,,,,,,,,,,,,,,,,,,,,,,,,,,,,,,,,,,,,,,,,,,,,,,16_Lizz,16,24,F,2022-12-08_13h10.24.388,dynamic target,2022.1.3,120.10176529272292,
0,8,1,2,T,0,89,89,89,,,,,,,None,374.0999263641395,None,373.1341391371391,None,373.600356761895,None,1,[0.009558550451174597],[0.5177120542803095],374.0999263641395,None,[1 1 2 0 1 3 1 2],space,0,1.0653268420612676,0.002358913242460403,None,374.11658102542424,None,1,375.1823478550348,None,None,375.6819104657212,None,,,,,,,,,,,,,,,,,,,,,,,,,,,,,,,,,,,,,,,,,,,,,,16_Lizz,16,24,F,2022-12-08_13h10.24.388,dynamic target,2022.1.3,120.10176529272292,
0,1,4,2,T,0,90,90,90,,,,,,,None,376.71437785074363,None,375.7402129410534,None,376.21479189210163,None,1,[0.008704810640892902],[0.5170161055993958],376.71437785074363,None,[3 3 2 3 1 1 3 3],space,0,0.6912653304607375,0.0030712183204286703,None,376.7310126277803,None,1,377.42210121338803,None,None,377.92166061693763,None,,,,,,,,,,,,,,,,,,,,,,,,,,,,,,,,,,,,,,,,,,,,,,16_Lizz,16,24,F,2022-12-08_13h10.24.388,dynamic target,2022.1.3,120.10176529272292,
0,8,3,1,T,0,91,91,91,,,,,,,None,378.9541097212805,None,377.9632975267202,None,378.45453691189937,None,1,[0.009260286730977896],[0.517680945053371],378.9541097212805,None,[3 3 1 2 0 2 2 3],space,0,1.1550330234326793,0.00235442325083568,None,378.97075860971904,None,1,380.1281093992841,None,None,380.62768355566266,None,,,,,,,,,,,,,,,,,,,,,,,,,,,,,,,,,,,,,,,,,,,,,,16_Lizz,16,24,F,2022-12-08_13h10.24.388,dynamic target,2022.1.3,120.10176529272292,
0,1,2,2,T,0,92,92,92,,,,,,,None,381.66012175574065,None,380.6860254787773,None,381.16055952991064,None,1,[0.008619500802751645],[0.5173140486060674],381.66012175574065,None,[0 2 1 3 2 0 1 0],space,0,1.2488080992332016,0.0023877774735865387,None,381.67679758412805,None,1,382.9257185429592,None,None,383.4252943029063,None,,,,,,,,,,,,,,,,,,,,,,,,,,,,,,,,,,,,,,,,,,,,,,16_Lizz,16,24,F,2022-12-08_13h10.24.388,dynamic target,2022.1.3,120.10176529272292,
0,2,3,2,T,0,93,93,93,,,,,,,None,384.45774244510835,None,383.48363462245266,384.48271641919337,383.9581629007398,None,1,[0.03400462982267527],[0.5417540344176359],384.45774244510835,None,[1 2 1 1 2 3 3 3],space,0,0.6345750186435453,0.00308180187198559,None,384.4993733254737,None,1,385.13217797299967,None,None,385.6317341694124,None,,,,,,,,,,,,,,,,,,,,,,,,,,,,,,,,,,,,,,,,,,,,,,16_Lizz,16,24,F,2022-12-08_13h10.24.388,dynamic target,2022.1.3,120.10176529272292,
0,3,2,2,T,0,94,94,94,,,,,,,None,386.6641781423366,None,385.67336241992575,386.6725160565302,386.1646181615024,None,2,"[0.0747878639378996, 0.16633269682347418]","[0.0834586789289915, 0.6666983104162227]",386.6641781423366,None,[3 1 1 0 1 0 1 0],space,0,0.9265665415396143,0.002699511167975288,None,386.830710964495,None,1,387.7549247188783,None,None,388.25450112025294,None,,,,,,,,,,,,,,,,,,,,,,,,,,,,,,,,,,,,,,,,,,,,,,16_Lizz,16,24,F,2022-12-08_13h10.24.388,dynamic target,2022.1.3,120.10176529272292,
0,4,3,2,T,0,95,95,95,,,,,,,None,389.2869380374759,None,388.31279846416624,None,388.7873947337532,None,1,[0.008562093054479192],[0.5173923027434739],389.2869380374759,None,[1 2 0 1 1 2 0 2],space,0,0.548821312636619,0.0025872613807678135,None,389.30360360302575,None,1,389.85313269913263,None,None,390.35270845907974,None,,,,,,,,,,,,,,,,,,,,,,,,,,,,,,,,,,,,,,,,,,,,,,16_Lizz,16,24,F,2022-12-08_13h10.24.388,dynamic target,2022.1.3,120.10176529272292,
0,5,4,2,T,0,96,96,96,,,,,,,None,391.3851626948415,None,390.4027339558172,None,390.88558667832353,None,1,[0.008688454243383603],[0.5169785820992274],391.3851626948415,None,[3 3 2 3 1 0 2 2],space,0,0.46777856984203936,0.0031440203256352106,None,391.4018038861518,None,1,391.8680802015108,None,None,392.36765339574856,None,,,,,,,,,,,,,,,,,,,,,,,,,,,,,,,,,,,,,,,,,,,,,,16_Lizz,16,24,F,2022-12-08_13h10.24.388,dynamic target,2022.1.3,120.10176529272292,
0,6,3,2,T,0,97,97,97,,,,,,,None,393.4001038470889,None,392.42594785323877,None,392.8922119814781,None,1,[0.00900339507506942],[0.5165064915656785],393.4001038470889,None,[3 2 0 3 2 0 3 2],space,0,0.47685412549458306,0.002638896283087888,None,393.4084317550157,None,1,393.88301744105115,None,None,394.38259993598547,None,,,,,,,,,,,,,,,,,,,,,,,,,,,,,,,,,,,,,,,,,,,,,,16_Lizz,16,24,F,2022-12-08_13h10.24.388,dynamic target,2022.1.3,120.10176529272292,
0,7,3,2,T,0,98,98,98,,,,,,,None,395.4150512853241,None,394.4325535928592,395.4317059466089,394.9071707088349,None,2,"[0.008751634838063183, 0.8502369753366565]","[0.4914901832751184, 1.358102157569192]",395.4150512853241,None,[2 3 1 1 2 2 2 0],space,0,0.5167547555688543,0.0026719297920863028,None,396.2643354203242,None,1,396.7805721916868,None,None,397.28012229453964,None,,,,,,,,,,,,,,,,,,,,,,,,,,,,,,,,,,,,,,,,,,,,,,16_Lizz,16,24,F,2022-12-08_13h10.24.388,dynamic target,2022.1.3,120.10176529272292,
0,8,1,2,T,0,99,99,99,,,,,,,None,398.31257268173727,None,397.3384507476799,None,397.8130149458989,None,1,[0.0078366387153892],[0.5167909645977034],398.31257268173727,None,[3 1 1 2 3 1 0 0],space,0,0.5152374591591524,0.002398681738668529,None,398.32925716939394,None,1,398.845442626568,None,None,399.34502448007504,None,,,,,,,,,,,,,,,,,,,,,,,,,,,,,,,,,,,,,,,,,,,,,,16_Lizz,16,24,F,2022-12-08_13h10.24.388,dynamic target,2022.1.3,120.10176529272292,
0,1,1,2,T,0,100,100,100,,,,,,,None,400.3774809608326,None,399.4033625546256,None,399.87790430288715,None,1,[0.008602502977737458],[0.5168541451921556],400.3774809608326,None,[1 1 3 1 1 3 1 2],space,0,0.46659802279441465,0.0030073962991536973,None,400.3941314528395,None,1,400.86042829387384,None,None,401.35995562605547,None,,,,,,,,,,,,,,,,,,,,,,,,,,,,,,,,,,,,,,,,,,,,,,16_Lizz,16,24,F,2022-12-08_13h10.24.388,dynamic target,2022.1.3,120.10176529272292,
0,2,3,2,T,0,101,101,101,,,,,,,None,402.392428142497,None,401.4183001148797,None,401.89284699456016,None,1,[0.008682681397431224],[0.5172604894219148],402.392428142497,None,[2 0 3 2 0 3 1 3],space,0,0.5154985200931606,0.002663911949866815,None,402.40907189951645,None,1,402.9252926351953,None,None,403.42487256442007,None,,,,,,,,,,,,,,,,,,,,,,,,,,,,,,,,,,,,,,,,,,,,,,16_Lizz,16,24,F,2022-12-08_13h10.24.388,dynamic target,2022.1.3,120.10176529272292,
0,3,4,2,T,0,102,102,102,,,,,,,None,404.4573223101904,None,403.47483327699456,None,403.95774918009556,None,1,[0.00810860391402457],[0.5169699228297304],404.4573223101904,None,[3 2 3 1 0 1 3 1],space,0,0.4981193666103536,0.0025109315258760034,None,404.4739766507614,None,1,404.97355555370245,None,None,405.4731396522053,None,,,,,,,,,,,,,,,,,,,,,,,,,,,,,,,,,,,,,,,,,,,,,,16_Lizz,16,24,F,2022-12-08_13h10.24.388,dynamic target,2022.1.3,120.10176529272292,
0,4,1,2,T,0,103,103,103,,,,,,,None,406.50557913513785,None,405.53143346826823,None,406.0059983079145,None,1,[0.008643875042253057],[0.5169708849709878],406.50557913513785,None,[3 0 2 0 1 1 1 0],space,0,0.5144080935888269,0.002889373665311723,None,406.5222244957258,None,1,407.03846703993463,None,None,407.5380463277321,None,,,,,,,,,,,,,,,,,,,,,,,,,,,,,,,,,,,,,,,,,,,,,,16_Lizz,16,24,F,2022-12-08_13h10.24.388,dynamic target,2022.1.3,120.10176529272292,
0,5,3,2,T,0,104,104,104,,,,,,,None,408.57047747210913,None,407.5880320559736,None,408.0709091527194,None,1,[0.008668569995506914],[0.5172297009089561],408.57047747210913,None,[3 2 3 1 2 0 1 1],space,0,0.4974702421263828,0.002661666954281827,None,408.5871292469708,None,1,409.0867055842025,None,None,409.5862746091624,None,,,,,,,,,,,,,,,,,,,,,,,,,,,,,,,,,,,,,,,,,,,,,,16_Lizz,16,24,F,2022-12-08_13h10.24.388,dynamic target,2022.1.3,120.10176529272292,
0,6,2,2,T,0,105,105,105,,,,,,,None,410.61872692064185,None,409.64462102226844,None,410.11915282840596,None,1,[0.009386647919882307],[0.5175398310352648],410.61872692064185,None,[0 1 1 0 1 0 2 1],space,0,0.44822529833822955,0.002482388008502312,None,410.6353947311875,None,1,411.08499521815907,None,None,411.5845690538241,None,,,,,,,,,,,,,,,,,,,,,,,,,,,,,,,,,,,,,,,,,,,,,,16_Lizz,16,24,F,2022-12-08_13h10.24.388,dynamic target,2022.1.3,120.10176529272292,
0,7,1,2,T,0,106,106,106,,,,,,,None,412.61702110873296,None,411.6429125805071,None,412.10913565739565,None,1,[0.008662797149327162],[0.5164243888639248],412.61702110873296,None,[0 1 0 2 2 3 2 0],space,0,0.5230019372972947,0.0030551826368991897,None,412.6253445266682,None,1,413.14989644155344,None,None,413.6494725222143,None,,,,,,,,,,,,,,,,,,,,,,,,,,,,,,,,,,,,,,,,,,,,,,16_Lizz,16,24,F,2022-12-08_13h10.24.388,dynamic target,2022.1.3,120.10176529272292,
0,8,2,2,T,0,107,107,107,,,,,,,None,414.68192034370236,None,413.69944253548533,None,414.1823324607783,None,1,[0.00953706263476306],[0.5174266191070274],414.68192034370236,None,[1 0 0 2 0 1 3 2],space,0,0.44896261908297674,0.0026061834880692913,None,414.6985807778333,None,1,415.1481979419161,None,None,415.64776472188043,None,,,,,,,,,,,,,,,,,,,,,,,,,,,,,,,,,,,,,,,,,,,,,,16_Lizz,16,24,F,2022-12-08_13h10.24.388,dynamic target,2022.1.3,120.10176529272292,
0,7,3,1,T,0,108,108,108,,,,,,,None,None,None,415.7061043999993,None,416.17231272405866,None,1,[0.008639385050628334],[0.5088901831466046],None,None,[3 3 3 3 1 0 3 1],space,0,1.4757418904603128,0.0027203575571093097,None,416.68021446765056,None,1,418.1539579595683,None,None,418.65352890881024,None,,,,,,,,,,,,,,,,,,,,,,,,,,,,,,,,,,,,,,,,,,,,,,16_Lizz,16,24,F,2022-12-08_13h10.24.388,dynamic target,2022.1.3,120.10176529272292,
0,4,2,0,T,0,109,109,109,,,,,,,None,419.68597865458037,None,418.70351335419673,None,419.1864084109086,None,1,[0.008645799324312975],[0.5175500938728419],419.68597865458037,None,[1 1 3 1 3 3 3 3],space,0,0.5808086534264021,0.0025304950600002485,None,419.70263299515136,None,0,420.293783991641,None,None,420.79337482513085,None,,,,,,,,,,,,,,,,,,,,,,,,,,,,,,,,,,,,,,,,,,,,,,16_Lizz,16,24,F,2022-12-08_13h10.24.388,dynamic target,2022.1.3,120.10176529272292,
0,5,1,2,T,0,110,110,110,,,,,,,None,421.82581078021303,None,420.84333425485056,None,421.32624342296435,None,1,[0.009215066102342462],[0.5177835734302789],421.82581078021303,None,[0 0 0 0 0 3 2 3],space,0,1.880542525216697,0.002291563370363292,None,421.8424699314892,None,0,423.72419585856005,None,None,424.2237822020587,None,,,,,,,,,,,,,,,,,,,,,,,,,,,,,,,,,,,,,,,,,,,,,,16_Lizz,16,24,F,2022-12-08_13h10.24.388,dynamic target,2022.1.3,120.10176529272292,
0,6,1,2,T,0,111,111,111,,,,,,,None,425.2562117428672,None,424.2737836452702,None,424.7566472720416,None,1,[0.008672097845874305],[0.5173185385974648],425.2562117428672,None,[3 2 3 0 2 3 0 3],space,0,1.7303564792123325,0.002756277489424974,None,425.27287025271585,None,1,427.0130514431153,None,None,427.5126272030624,None,,,,,,,,,,,,,,,,,,,,,,,,,,,,,,,,,,,,,,,,,,,,,,16_Lizz,16,24,F,2022-12-08_13h10.24.388,dynamic target,2022.1.3,120.10176529272292,
0,7,1,2,T,0,112,112,112,,,,,,,None,428.5450753452642,None,427.5542596228536,None,428.04550221516934,None,1,[0.008615972952384254],[0.5176645886558617],428.5450753452642,None,[0 3 0 0 3 2 0 0],space,0,0.9048946354805594,0.00250612082072621,None,428.56173096869,None,1,429.4692929482119,None,None,429.96886165245803,None,,,,,,,,,,,,,,,,,,,,,,,,,,,,,,,,,,,,,,,,,,,,,,16_Lizz,16,24,F,2022-12-08_13h10.24.388,dynamic target,2022.1.3,120.10176529272292,
0,8,2,2,T,0,113,113,113,,,,,,,None,431.0012969661127,None,430.0188239686008,None,430.5017369852785,None,1,[0.008632329349893553],[0.5171726138742088],431.0012969661127,None,[3 0 3 3 2 0 0 3],space,0,1.009809700877213,0.002839663045506313,None,431.01796509737187,None,1,432.025435801781,None,None,432.525017655288,None,,,,,,,,,,,,,,,,,,,,,,,,,,,,,,,,,,,,,,,,,,,,,,16_Lizz,16,24,F,2022-12-08_13h10.24.388,dynamic target,2022.1.3,120.10176529272292,
0,1,2,2,T,0,114,114,114,,,,,,,None,433.55745040323336,None,432.5833509191334,None,433.057916400207,None,1,[0.008651572170492727],[0.5173579863799205],433.55745040323336,None,[3 2 1 2 0 2 3 3],space,0,0.6772058842564093,0.0024605794785657054,None,433.5741117995051,None,1,434.25686888519294,None,None,434.7564363065843,None,,,,,,,,,,,,,,,,,,,,,,,,,,,,,,,,,,,,,,,,,,,,,,16_Lizz,16,24,F,2022-12-08_13h10.24.388,dynamic target,2022.1.3,120.10176529272292,
0,3,1,0,T,0,115,115,115,,,,,,,None,435.7888870144957,None,434.81477887112624,None,435.28931997796053,None,1,[0.008639064337103264],[0.5170674197879634],435.7888870144957,None,[0 1 1 2 1 1 1 1],space,0,2.045352152784517,0.0029698727985305595,None,435.80554039292565,None,1,437.8537895207446,None,None,438.35336303569613,None,,,,,,,,,,,,,,,,,,,,,,,,,,,,,,,,,,,,,,,,,,,,,,16_Lizz,16,24,F,2022-12-08_13h10.24.388,dynamic target,2022.1.3,120.10176529272292,
0,4,2,2,T,0,116,116,116,,,,,,,None,439.3858172714579,None,438.4116975823961,None,438.8862412549397,None,1,[0.008618859375246757],[0.5168958379701962],439.3858172714579,None,[1 0 3 2 3 1 3 1],space,0,0.9447243878319114,0.0029926434697244986,None,439.40246776346476,None,1,440.35165517121936,None,None,440.85122932759816,None,,,,,,,,,,,,,,,,,,,,,,,,,,,,,,,,,,,,,,,,,,,,,,16_Lizz,16,24,F,2022-12-08_13h10.24.388,dynamic target,2022.1.3,120.10176529272292,
0,5,1,2,T,0,117,117,117,,,,,,,None,441.88368741192403,None,440.8928665580943,None,441.3840908697307,None,1,[0.008598975127370068],[0.5177389942291484],441.88368741192403,None,[0 0 3 0 0 2 3 1],space,0,0.6537857679400076,0.002309202622882367,None,441.9003343760803,None,1,442.5581024141402,None,None,443.0576784948008,None,,,,,,,,,,,,,,,,,,,,,,,,,,,,,,,,,,,,,,,,,,,,,,16_Lizz,16,24,F,2022-12-08_13h10.24.388,dynamic target,2022.1.3,120.10176529272292,
0,4,4,1,T,0,118,118,118,,,,,,,None,444.0901286254276,None,443.11601785220614,None,443.58223355268,None,1,[0.008664721431159705],[0.5164583845137258],444.0901286254276,None,[3 2 1 3 1 2 3 1],space,0,2.103788750576996,0.00258565781246034,None,444.0984603819186,None,1,446.2049860714051,None,None,446.7045615106384,None,,,,,,,,,,,,,,,,,,,,,,,,,,,,,,,,,,,,,,,,,,,,,,16_Lizz,16,24,F,2022-12-08_13h10.24.388,dynamic target,2022.1.3,120.10176529272292,
0,5,4,2,T,0,119,119,119,,,,,,,None,447.73701189783606,None,446.74619809970727,None,447.2374390884547,None,1,[0.008629122213051232],[0.5174615768978583],447.73701189783606,None,[2 3 2 1 1 3 1 2],space,0,0.6728303875511301,0.002669364082521497,None,447.75365084415057,None,1,448.42809567273866,None,space,448.9359893984886,None,0.5038906092408979,,,,,,,,,,,,,,,,,,,,,,,,,,,,,,,,,,,,,,,,,,,,,16_Lizz,16,24,F,2022-12-08_13h10.24.388,dynamic target,2022.1.3,120.10176529272292,
0,6,4,2,T,0,120,120,120,,,,,,,None,450.48467020691805,None,449.5105059386551,450.5096435395758,449.9850919454043,None,2,"[0.02480656154511962, 0.0414702028128886]","[0.03313613718319175, 0.5421138751639774]",450.48467020691805,None,[2 1 2 3 2 2 2 1],space,0,2.8750730741567168,0.002332294007146629,None,450.5262959558647,None,1,453.39884273676535,None,None,453.89841464814833,None,,,,,,,,,,,,,,,,,,,,,,,,,,,,,,,,,,,,,,,,,,,,,,16_Lizz,16,24,F,2022-12-08_13h10.24.388,dynamic target,2022.1.3,120.10176529272292,
0,7,3,2,T,0,121,121,121,,,,,,,None,454.93086728034154,None,453.95676074054063,454.9558438201361,454.43128420812263,None,1,[0.1413959255253303],[0.6419270273754591],454.93086728034154,None,[1 0 1 0 0 2 3 3],space,0,1.5450734525988992,0.0025000272605666396,None,455.07242484556036,None,1,456.6210880147373,None,None,457.1206621711161,None,,,,,,,,,,,,,,,,,,,,,,,,,,,,,,,,,,,,,,,,,,,,,,16_Lizz,16,24,F,2022-12-08_13h10.24.388,dynamic target,2022.1.3,120.10176529272292,
0,8,3,2,T,0,122,122,122,,,,,,,None,458.1531122376,None,457.17061711084443,None,457.6535371832231,None,1,[0.009513971249816677],[0.5177351456648012],458.1531122376,None,[0 3 1 2 3 1 3 2],space,0,0.7037436582338614,0.0022931669384433917,None,458.16976625745747,None,1,458.87750341079004,None,None,459.3770676250448,None,,,,,,,,,,,,,,,,,,,,,,,,,,,,,,,,,,,,,,,,,,,,,,16_Lizz,16,24,F,2022-12-08_13h10.24.388,dynamic target,2022.1.3,120.10176529272292,
0,1,4,2,T,0,123,123,123,,,,,,,None,460.40951833295594,None,459.43541051030024,None,459.90994359929255,None,1,[0.008710904200825098],[0.5178557340077532],460.40951833295594,None,[3 0 1 3 3 1 0 0],space,0,0.7029819632493854,0.0022437770319356787,None,460.4261704285311,None,1,461.13390116759024,None,None,461.6334936046486,None,,,,,,,,,,,,,,,,,,,,,,,,,,,,,,,,,,,,,,,,,,,,,,16_Lizz,16,24,F,2022-12-08_13h10.24.388,dynamic target,2022.1.3,120.10176529272292,
0,2,4,2,T,0,124,124,124,,,,,,,None,462.6659135240468,None,461.6918150020879,None,462.16635001536224,None,1,[0.008599295841122512],[0.5171536917671347],462.6659135240468,None,[3 3 0 3 2 0 2 1],space,0,0.6393555767240287,0.00281945808387718,None,462.6825871074384,None,1,463.323683165675,None,None,463.8232685470324,None,,,,,,,,,,,,,,,,,,,,,,,,,,,,,,,,,,,,,,,,,,,,,,16_Lizz,16,24,F,2022-12-08_13h10.24.388,dynamic target,2022.1.3,120.10176529272292,
0,3,1,2,T,0,125,125,125,,,,,,,None,464.8557186135163,None,463.88158032306137,None,464.35614644556244,None,1,[0.008590315858100439],[0.5171520881988272],464.8557186135163,None,[1 1 2 2 1 3 2 2],space,0,0.6254372445378067,0.002922407174082764,None,464.87237584051036,None,1,465.49683840456487,None,None,465.9964173716488,None,,,,,,,,,,,,,,,,,,,,,,,,,,,,,,,,,,,,,,,,,,,,,,16_Lizz,16,24,F,2022-12-08_13h10.24.388,dynamic target,2022.1.3,120.10176529272292,
0,2,3,1,T,0,126,126,126,,,,,,,None,467.0288623067138,None,466.03804850858523,None,466.5292792344949,None,1,[0.008639385050855708],[0.5177441256480506],467.0288623067138,None,[0 1 2 0 0 0 3 0],space,0,1.203314543333363,0.0023197861737571657,None,467.0455150437165,None,1,468.2528227614346,None,None,468.75237446785593,None,,,,,,,,,,,,,,,,,,,,,,,,,,,,,,,,,,,,,,,,,,,,,,16_Lizz,16,24,F,2022-12-08_13h10.24.388,dynamic target,2022.1.3,120.10176529272292,
0,3,2,2,T,0,127,127,127,,,,,,,None,469.78485371928446,None,468.7940209990488,None,469.28527577848445,None,1,[0.008623670080623924],[0.5174897997014796],469.78485371928446,None,[0 3 0 0 3 1 2 2],space,0,0.7195615775335682,0.0025590385776013136,None,469.8014942691673,None,1,470.5258928187718,None,None,471.0254477323298,None,,,,,,,,,,,,,,,,,,,,,,,,,,,,,,,,,,,,,,,,,,,,,,16_Lizz,16,24,F,2022-12-08_13h10.24.388,dynamic target,2022.1.3,120.10176529272292,
0,4,2,2,T,0,128,128,128,,,,,,,None,472.0579038923736,None,471.0837383412561,None,471.55833076227873,None,1,[0.008624952935178953],[0.517637007279518],472.0579038923736,None,[0 1 3 1 1 3 2 2],space,0,0.6228272766281862,0.0024695594611330307,None,472.0745547050942,None,1,472.6990166277212,None,None,473.198589821959,None,,,,,,,,,,,,,,,,,,,,,,,,,,,,,,,,,,,,,,,,,,,,,,16_Lizz,16,24,F,2022-12-08_13h10.24.388,dynamic target,2022.1.3,120.10176529272292,
0,5,2,2,T,0,129,129,129,,,,,,,None,474.23106336468425,None,473.24022641102783,None,473.7314683619163,None,1,[0.00860923796494717],[0.5091913332901186],474.23106336468425,None,[2 0 3 0 2 1 1 3],space,0,0.5054277898984765,0.0023005433533853648,None,474.23936657765785,None,1,474.7472994304767,None,None,475.24682612123104,None,,,,,,,,,,,,,,,,,,,,,,,,,,,,,,,,,,,,,,,,,,,,,,16_Lizz,16,24,F,2022-12-08_13h10.24.388,dynamic target,2022.1.3,120.10176529272292,
0,6,3,2,T,0,130,130,130,,,,,,,None,476.27928869554853,None,475.30518600431174,None,475.77971909330404,None,1,[0.008689416384413562],[0.5170946804505547],476.27928869554853,None,[3 3 1 2 1 1 2 1],space,0,0.609135047584914,0.0027864245748787653,None,476.2959465639699,None,1,476.9037554288807,None,None,477.4033517145032,None,,,,,,,,,,,,,,,,,,,,,,,,,,,,,,,,,,,,,,,,,,,,,,16_Lizz,16,24,F,2022-12-08_13h10.24.388,dynamic target,2022.1.3,120.10176529272292,
0,7,1,2,T,0,131,131,131,,,,,,,None,478.43577355818366,None,477.4616734326562,None,477.93620684236225,None,1,[0.008649327174680366],[0.5174378440856344],478.43577355818366,None,[3 3 0 2 1 0 1 0],space,0,0.5479932299208485,0.0024855951453446323,None,478.4524343130281,None,1,479.0019720684045,None,None,479.5015414140779,None,,,,,,,,,,,,,,,,,,,,,,,,,,,,,,,,,,,,,,,,,,,,,,16_Lizz,16,24,F,2022-12-08_13h10.24.388,dynamic target,2022.1.3,120.10176529272292,
0,8,2,2,T,0,132,132,132,,,,,,,None,480.5339909032772,None,479.5515082202123,None,480.0260878126878,None,1,[0.008658948584979953],[0.5164269545734896],480.5339909032772,None,[3 3 3 0 0 1 0 3],space,0,0.6030697105115905,0.0030083584397289087,None,480.5423146419264,None,1,481.15012895896984,None,None,481.64970183249386,None,,,,,,,,,,,,,,,,,,,,,,,,,,,,,,,,,,,,,,,,,,,,,,16_Lizz,16,24,F,2022-12-08_13h10.24.388,dynamic target,2022.1.3,120.10176529272292,
0,1,3,2,T,0,133,133,133,,,,,,,None,482.68215356668895,None,481.69966928005556,None,482.17425464537723,None,1,[0.009107627020284781],[0.516430161710332],482.68215356668895,None,[2 1 1 1 1 0 2 1],space,0,0.5187136747122167,0.0028896943795189145,None,482.6904805124748,None,1,483.2066980410168,None,None,483.70627764952803,None,,,,,,,,,,,,,,,,,,,,,,,,,,,,,,,,,,,,,,,,,,,,,,16_Lizz,16,24,F,2022-12-08_13h10.24.388,dynamic target,2022.1.3,120.10176529272292,
0,2,2,2,T,0,134,134,134,,,,,,,None,484.7387283574392,None,483.7646224590658,None,484.23919467512656,None,1,[0.008607313682887252],[0.5174214876881251],484.7387283574392,None,[1 0 3 3 2 2 0 0],space,0,0.6612667351867003,0.002541078611557168,None,484.7553826980102,None,1,485.4214787081396,None,None,485.92107916303996,None,,,,,,,,,,,,,,,,,,,,,,,,,,,,,,,,,,,,,,,,,,,,,,16_Lizz,16,24,F,2022-12-08_13h10.24.388,dynamic target,2022.1.3,120.10176529272292,
0,7,1,0,T,0,135,135,135,,,,,,,None,486.9535026102885,None,485.96268656716416,None,486.4539342908988,None,1,[0.008603785832519861],[0.5174785747226451],486.9535026102885,None,[2 2 0 0 2 1 0 0],space,0,1.7747650607404921,0.0026016934962171945,None,486.97016176156467,None,1,488.7436516331061,None,None,489.243213602365,None,,,,,,,,,,,,,,,,,,,,,,,,,,,,,,,,,,,,,,,,,,,,,,16_Lizz,16,24,F,2022-12-08_13h10.24.388,dynamic target,2022.1.3,120.10176529272292,
0,8,1,2,T,0,136,136,136,,,,,,,None,490.2756540474386,None,489.2931698249481,None,489.7760924630361,None,1,[0.008663438576604676],[0.5168948758291663],490.2756540474386,None,[1 1 2 2 1 3 2 3],space,0,0.6280728695412563,0.0032033523557402077,None,490.2923164058516,None,1,490.91678378061124,None,None,491.41635633342173,None,,,,,,,,,,,,,,,,,,,,,,,,,,,,,,,,,,,,,,,,,,,,,,16_Lizz,16,24,F,2022-12-08_13h10.24.388,dynamic target,2022.1.3,120.10176529272292,
0,1,3,2,T,0,137,137,137,,,,,,,None,492.44880896561494,None,491.4746982565364,None,491.94923615623384,None,1,[0.00864547861056053],[0.5175475281632771],492.44880896561494,None,[0 3 3 3 2 3 3 1],space,0,0.5181934771271699,0.0020077317653885984,None,492.46546715475006,None,1,492.9816862868604,None,None,493.4812581982434,None,,,,,,,,,,,,,,,,,,,,,,,,,,,,,,,,,,,,,,,,,,,,,,16_Lizz,16,24,F,2022-12-08_13h10.24.388,dynamic target,2022.1.3,120.10176529272292,
0,2,1,2,T,0,138,138,138,,,,,,,None,494.5137108304368,None,493.5395882549519,None,494.01413930391027,None,1,[0.008636498627538458],[0.517179028147666],494.5137108304368,None,[1 2 3 0 1 1 0 0],space,0,0.5183041233458425,0.002857943725075529,None,494.5303600395889,None,1,495.0465891138233,None,None,495.54616583591144,None,,,,,,,,,,,,,,,,,,,,,,,,,,,,,,,,,,,,,,,,,,,,,,16_Lizz,16,24,F,2022-12-08_13h10.24.388,dynamic target,2022.1.3,120.10176529272292,
0,3,1,2,T,0,139,139,139,,,,,,,None,496.5786187888184,None,495.59612911419526,None,496.0790318680354,None,1,[0.00951204696775676],[0.5175138532272285],496.5786187888184,None,[1 3 3 0 1 3 2 0],space,0,0.48431520849339904,0.0025660942781087215,None,496.59526992225256,None,1,497.0781669032465,None,None,497.57777056528346,None,,,,,,,,,,,,,,,,,,,,,,,,,,,,,,,,,,,,,,,,,,,,,,16_Lizz,16,24,F,2022-12-08_13h10.24.388,dynamic target,2022.1.3,120.10176529272292,
0,4,4,2,T,0,140,140,140,,,,,,,None,498.610209086075,None,497.63609196272273,None,498.1106382009759,None,1,[0.009464260629783894],[0.5175061560989889],498.610209086075,None,[1 1 2 1 1 0 1 1],space,0,0.48498550007980157,0.002688606902893298,None,498.62686599235553,None,1,499.10978381973837,None,None,499.60935701397614,None,,,,,,,,,,,,,,,,,,,,,,,,,,,,,,,,,,,,,,,,,,,,,,16_Lizz,16,24,F,2022-12-08_13h10.24.388,dynamic target,2022.1.3,120.10176529272292,
0,5,3,2,T,0,141,141,141,,,,,,,None,500.6418077218873,None,499.66764249148355,None,500.14223619536074,None,1,[0.008614048670324337],[0.5171232239679284],500.6418077218873,None,[0 0 1 3 2 3 1 2],space,0,0.5010878924115332,0.002724526834754215,None,500.65845212033423,None,1,501.1580570010833,None,None,501.65759523753024,None,,,,,,,,,,,,,,,,,,,,,,,,,,,,,,,,,,,,,,,,,,,,,,16_Lizz,16,24,F,2022-12-08_13h10.24.388,dynamic target,2022.1.3,120.10176529272292,
0,6,3,2,T,0,142,142,142,,,,,,,None,502.69005749113376,None,501.71596121417065,None,502.1904830781841,None,1,[0.008645799324312975],[0.5173073136188577],502.69005749113376,None,[0 2 1 3 3 1 3 3],space,0,0.5488787203851189,0.0025773192571705295,None,502.70671535955535,None,1,503.25623804138877,None,None,503.7558138013359,None,,,,,,,,,,,,,,,,,,,,,,,,,,,,,,,,,,,,,,,,,,,,,,16_Lizz,16,24,F,2022-12-08_13h10.24.388,dynamic target,2022.1.3,120.10176529272292,
0,7,2,2,T,0,143,143,143,,,,,,,None,504.788264509247,None,503.8141438580444,None,504.28868977558386,None,1,[0.008636177914013388],[0.5169077043763082],504.788264509247,None,[1 2 0 2 3 2 3 0],space,0,0.8509162785223907,0.003100723979059694,None,504.80493071622413,None,1,505.654192080553,None,None,506.15377425477357,None,,,,,,,,,,,,,,,,,,,,,,,,,,,,,,,,,,,,,,,,,,,,,,16_Lizz,16,24,F,2022-12-08_13h10.24.388,dynamic target,2022.1.3,120.10176529272292,
0,2,2,0,T,0,144,144,144,,,,,,,None,507.1862201519798,None,506.2121039907686,507.2111931639238,506.6866431733208,None,2,"[0.008635857200260944, 0.7420708353884038]","[0.4261155864921875, 1.249515882703463]",507.1862201519798,None,[2 3 0 1 1 0 3 3],space,0,2.2647703396876295,0.003221312322011727,None,507.93558177140426,None,1,510.200332515941,None,None,510.6998659416828,None,,,,,,,,,,,,,,,,,,,,,,,,,,,,,,,,,,,,,,,,,,,,,,16_Lizz,16,24,F,2022-12-08_13h10.24.388,dynamic target,2022.1.3,120.10176529272292,
0,3,3,2,T,0,145,145,145,,,,,,,None,511.7323278745728,None,510.7415089450251,None,511.23275731018725,None,1,[0.00951076411320173],[0.5175953145014773],511.7323278745728,None,[0 0 2 2 2 2 3 0],space,0,0.5618121408670049,0.0024647487564379844,None,511.7489905536993,None,1,512.3151662932489,None,None,512.8147414117688,None,,,,,,,,,,,,,,,,,,,,,,,,,,,,,,,,,,,,,,,,,,,,,,16_Lizz,16,24,F,2022-12-08_13h10.24.388,dynamic target,2022.1.3,120.10176529272292,
0,4,4,2,T,0,146,146,146,,,,,,,None,513.8471905161116,None,512.8647380442751,None,513.347616103162,None,1,[0.008637140055043346],[0.5174516347738063],513.8471905161116,None,[1 0 2 1 0 0 1 0],space,0,0.6390714244055289,0.002480784439967465,None,513.8638570438025,None,1,514.5049521398978,None,None,515.0045442562426,None,,,,,,,,,,,,,,,,,,,,,,,,,,,,,,,,,,,,,,,,,,,,,,16_Lizz,16,24,F,2022-12-08_13h10.24.388,dynamic target,2022.1.3,120.10176529272292,
0,5,4,2,T,0,147,147,147,,,,,,,None,516.0369856634572,None,515.0545251737788,None,515.5374122126486,None,1,[0.008656703589394965],[0.5173855677562642],516.0369856634572,None,[2 3 3 0 0 0 0 1],space,0,0.5452652393780681,0.002723243980881307,None,516.0536387211735,None,1,516.6031713451309,None,None,517.1027791764458,None,,,,,,,,,,,,,,,,,,,,,,,,,,,,,,,,,,,,,,,,,,,,,,16_Lizz,16,24,F,2022-12-08_13h10.24.388,dynamic target,2022.1.3,120.10176529272292,
0,6,1,2,T,0,148,148,148,,,,,,,None,518.1351953114225,None,517.1610694646583,None,517.6272928622604,None,1,[0.00863425363195347],[0.5164708923473427],518.1351953114225,None,[0 2 2 2 0 2 3 3],space,0,0.5829006687463334,0.0025455686029545177,None,518.1435190500717,None,1,518.7263549030386,None,None,519.2259380394004,None,,,,,,,,,,,,,,,,,,,,,,,,,,,,,,,,,,,,,,,,,,,,,,16_Lizz,16,24,F,2022-12-08_13h10.24.388,dynamic target,2022.1.3,120.10176529272292,
0,7,4,2,T,0,149,149,149,,,,,,,None,520.2583772016192,None,519.2842427597284,None,519.7588063165201,None,1,[0.008625273648931397],[0.5169481142997938],520.2583772016192,None,[1 0 0 2 3 2 3 2],space,0,0.5643076139933783,0.00289097723384657,None,520.2750315421902,None,1,520.8412239588511,None,None,521.3407785516955,None,,,,,,,,,,,,,,,,,,,,,,,,,,,,,,,,,,,,,,,,,,,,,,16_Lizz,16,24,F,2022-12-08_13h10.24.388,dynamic target,2022.1.3,120.10176529272292,
0,8,3,2,T,0,150,150,150,,,,,,,None,522.3732392017307,None,521.3907559413813,None,521.8736641473538,None,1,[0.008613727956571893],[0.5175712609757284],522.3732392017307,None,[3 2 2 2 0 0 1 2],space,0,0.5760566388635198,0.002240890609073176,None,522.389928179379,None,1,522.9644306081436,None,None,523.4640021988131,None,,,,,,,,,,,,,,,,,,,,,,,,,,,,,,,,,,,,,,,,,,,,,,16_Lizz,16,24,F,2022-12-08_13h10.24.388,dynamic target,2022.1.3,120.10176529272292,
0,1,4,2,T,0,151,151,151,,,,,,,None,524.4964234010658,None,523.5223155784104,None,523.99684930883,None,1,[0.009446621377492193],[0.517803457678383],524.4964234010658,None,[0 2 2 3 0 1 3 0],space,0,0.4857115958461691,0.0021934249846253806,None,524.5130889666157,None,1,525.0043254653715,None,None,525.5039185438574,None,,,,,,,,,,,,,,,,,,,,,,,,,,,,,,,,,,,,,,,,,,,,,,16_Lizz,16,24,F,2022-12-08_13h10.24.388,dynamic target,2022.1.3,120.10176529272292,
0,8,4,1,T,0,152,152,152,,,,,,,None,526.5363474432386,None,525.5622322441684,None,526.0367736717162,None,1,[0.008652213597997616],[0.5171524089125796],526.5363474432386,None,[0 0 1 2 3 0 0 1],space,0,3.1817282678259744,0.002934915007926975,None,526.552998255959,None,1,529.73361650213,None,None,530.2331900170813,None,,,,,,,,,,,,,,,,,,,,,,,,,,,,,,,,,,,,,,,,,,,,,,16_Lizz,16,24,F,2022-12-08_13h10.24.388,dynamic target,2022.1.3,120.10176529272292,
0,1,2,2,T,0,153,153,153,,,,,,,None,531.2656410457062,None,530.2915033966785,None,530.7660647084745,None,1,[0.008680757115143933],[0.5174811404322099],531.2656410457062,None,[2 3 1 1 2 1 3 2],space,0,1.060570016793008,0.002573791406575765,None,531.2822931412813,None,1,532.3480497080543,None,None,532.8476241851466,None,,,,,,,,,,,,,,,,,,,,,,,,,,,,,,,,,,,,,,,,,,,,,,16_Lizz,16,24,F,2022-12-08_13h10.24.388,dynamic target,2022.1.3,120.10176529272292,
0,2,4,2,T,0,154,154,154,,,,,,,None,533.8800800244769,None,532.9058984376754,None,533.3804838029971,None,1,[0.008720846325104503],[0.5171222618268985],533.8800800244769,None,[0 2 0 0 1 2 3 2],space,0,0.6698750110106175,0.0029458192727815913,None,533.8967260264922,None,1,534.5711493672641,None,None,535.0707402007539,None,,,,,,,,,,,,,,,,,,,,,,,,,,,,,,,,,,,,,,,,,,,,,,16_Lizz,16,24,F,2022-12-08_13h10.24.388,dynamic target,2022.1.3,120.10176529272292,
0,1,4,1,T,0,155,155,155,,,,,,,None,536.1031777594044,None,535.1207124590208,None,535.6035994978906,None,1,[0.008592240140160357],[0.5173531756747707],536.1031777594044,None,[0 3 1 0 0 1 3 0],space,0,1.597652535781208,0.002538192188467292,None,536.1198154228641,None,1,537.7184592530066,None,None,538.2180420686547,None,,,,,,,,,,,,,,,,,,,,,,,,,,,,,,,,,,,,,,,,,,,,,,16_Lizz,16,24,F,2022-12-08_13h10.24.388,dynamic target,2022.1.3,120.10176529272292,
0,2,1,2,T,0,156,156,156,,,,,,,None,539.2504834758693,None,538.2763265840208,539.2754645056552,538.7509113079152,None,1,[0.09139121103407888],[0.591432262384842],539.2504834758693,None,[3 1 3 3 3 0 0 2],space,0,0.5366399657291367,0.0030612761966040125,None,539.3420722465287,None,1,539.8832765777029,None,None,540.3828507340814,None,,,,,,,,,,,,,,,,,,,,,,,,,,,,,,,,,,,,,,,,,,,,,,16_Lizz,16,24,F,2022-12-08_13h10.24.388,dynamic target,2022.1.3,120.10176529272292,
0,3,2,2,T,0,157,157,157,,,,,,,None,541.4153020834201,None,540.4328682129769,None,540.9156962405302,None,1,[0.008630405067606262],[0.516679035524021],541.4153020834201,None,[3 2 2 0 3 0 2 0],space,0,0.5256016423688834,0.002727092544319021,None,541.4319391054526,None,1,541.956520525996,None,None,542.4560799295456,None,,,,,,,,,,,,,,,,,,,,,,,,,,,,,,,,,,,,,,,,,,,,,,16_Lizz,16,24,F,2022-12-08_13h10.24.388,dynamic target,2022.1.3,120.10176529272292,
0,8,4,0,T,0,158,158,158,,,,,,,None,543.4885351274484,None,542.5144135141047,None,542.9889539795115,None,1,[0.0085925608539128],[0.5170751169162031],543.4885351274484,None,[2 1 2 0 1 0 0 0],space,0,1.828343167029061,0.0028903358063416817,None,543.5051820916049,None,1,545.3369498076679,None,None,545.8365165876322,None,,,,,,,,,,,,,,,,,,,,,,,,,,,,,,,,,,,,,,,,,,,,,,16_Lizz,16,24,F,2022-12-08_13h10.24.388,dynamic target,2022.1.3,120.10176529272292,
0,1,3,2,T,0,159,159,159,,,,,,,None,546.8606396441874,None,545.8698482960162,None,546.3610777390711,None,1,[0.00864163004666807],[0.5178246247810421],546.8606396441874,None,[2 0 2 2 1 3 2 1],space,0,0.7439152913659655,0.002264302707317256,None,546.8773090583013,None,1,547.6266594527469,None,None,548.1262348919805,None,,,,,,,,,,,,,,,,,,,,,,,,,,,,,,,,,,,,,,,,,,,,,,16_Lizz,16,24,F,2022-12-08_13h10.24.388,dynamic target,2022.1.3,120.10176529272292,
0,2,4,2,T,0,160,160,160,,,,,,,None,549.1586833548961,None,548.176177644589,None,548.6590836055657,None,1,[0.008128488162128633],[0.5169417000261092],549.1586833548961,None,[0 3 3 1 0 2 0 3],space,0,0.7656340216217359,0.0024499959272361593,None,549.1753447511678,None,1,549.9413469204751,None,None,550.440923001136,None,,,,,,,,,,,,,,,,,,,,,,,,,,,,,,,,,,,,,,,,,,,,,,16_Lizz,16,24,F,2022-12-08_13h10.24.388,dynamic target,2022.1.3,120.10176529272292,
0,5,1,0,T,0,161,161,161,,,,,,,None,551.4733823683166,None,550.4825522137903,None,550.9737960889609,None,1,[0.00950434983951709],[0.5175978802108148],551.4733823683166,None,[1 1 0 1 2 0 1 0],space,0,2.322764994032241,0.0024592966237833025,None,551.4900270874773,None,1,553.8130550351086,None,None,554.3126112315214,None,,,,,,,,,,,,,,,,,,,,,,,,,,,,,,,,,,,,,,,,,,,,,,16_Lizz,16,24,F,2022-12-08_13h10.24.388,dynamic target,2022.1.3,120.10176529272292,
0,1,4,0,T,0,162,162,162,,,,,,,None,555.3450658521396,None,554.3625956769079,None,554.8371698172509,None,1,[0.00863874362335082],[0.5164308031376095],555.3450658521396,None,[1 3 1 1 1 3 3 2],space,0,1.868468617391045,0.0027710303186267993,None,555.3533764415279,None,1,557.226793318636,None,None,557.7263575328908,None,,,,,,,,,,,,,,,,,,,,,,,,,,,,,,,,,,,,,,,,,,,,,,16_Lizz,16,24,F,2022-12-08_13h10.24.388,dynamic target,2022.1.3,120.10176529272292,
0,7,2,0,T,0,163,163,163,,,,,,,None,558.758825238627,None,557.7763230561704,None,558.2592254892968,None,1,[0.016845485922885928],[0.5173980755896537],558.758825238627,None,[2 2 0 1 1 0 3 1],space,0,1.597607315152345,0.002655894108102075,None,558.775449752826,None,1,560.374116674353,None,None,560.8736677393471,None,,,,,,,,,,,,,,,,,,,,,,,,,,,,,,,,,,,,,,,,,,,,,,16_Lizz,16,24,F,2022-12-08_13h10.24.388,dynamic target,2022.1.3,120.10176529272292,
0,6,1,1,T,0,164,164,164,,,,,,,None,561.9061246049608,None,560.9320058138976,None,561.3982372293417,None,1,[0.008833737539362119],[0.5164715337746202],561.9061246049608,None,[0 2 3 2 2 2 2 1],space,0,2.666091551754562,0.00275595677567253,None,561.9144675864306,None,1,564.578841043397,None,None,565.0784286697502,None,,,,,,,,,,,,,,,,,,,,,,,,,,,,,,,,,,,,,,,,,,,,,,16_Lizz,16,24,F,2022-12-08_13h10.24.388,dynamic target,2022.1.3,120.10176529272292,
0,7,1,2,T,0,165,165,165,,,,,,,None,566.1108646248324,None,565.1283730259272,566.1275176825486,565.6112921361648,None,3,"[0.009211858965500141, 0.033530615007066444, 0.05016539204370929]","[0.016886537273649083, 0.04185377637145393, 0.5508578128738009]",566.1108646248324,None,[1 3 0 2 1 0 1 3],space,0,1.2517830393078384,0.002289639088076001,None,566.1608282879727,None,1,567.4180823502925,None,None,567.9176542616755,None,,,,,,,,,,,,,,,,,,,,,,,,,,,,,,,,,,,,,,,,,,,,,,16_Lizz,16,24,F,2022-12-08_13h10.24.388,dynamic target,2022.1.3,120.10176529272292,
0,6,2,1,T,0,166,166,166,,,,,,,None,568.9501052903004,None,567.9759698862686,None,568.4505340844876,None,1,[0.009095439900420388],[0.517725844968254],568.9501052903004,None,[2 3 2 1 1 0 2 1],space,0,2.2054370264525005,0.0023124097590425663,None,568.9667599515851,None,1,571.1732046287964,None,None,571.6727839165939,None,,,,,,,,,,,,,,,,,,,,,,,,,,,,,,,,,,,,,,,,,,,,,,16_Lizz,16,24,F,2022-12-08_13h10.24.388,dynamic target,2022.1.3,120.10176529272292,
0,7,1,2,T,0,167,167,167,,,,,,,None,572.7052400766377,None,571.7311130111614,None,572.2056592494146,None,1,[0.008640026477905849],[0.5175282853426779],572.7052400766377,None,[1 0 3 0 2 3 1 1],space,0,1.0900567530375156,0.0023637239476101968,None,572.7218690808281,None,1,573.8126182230794,None,None,574.3121930208855,None,,,,,,,,,,,,,,,,,,,,,,,,,,,,,,,,,,,,,,,,,,,,,,16_Lizz,16,24,F,2022-12-08_13h10.24.388,dynamic target,2022.1.3,120.10176529272292,
0,8,1,2,T,0,168,168,168,,,,,,,None,575.3446411630873,None,574.3705343025729,None,574.8450542423043,None,1,[0.008614690097601851],[0.5175754302533733],575.3446411630873,None,[3 2 2 3 1 2 2 3],space,0,0.6105574127454929,0.002568659987673527,None,575.36129390009,None,1,575.9690931435905,None,None,576.4686891084995,None,,,,,,,,,,,,,,,,,,,,,,,,,,,,,,,,,,,,,,,,,,,,,,16_Lizz,16,24,F,2022-12-08_13h10.24.388,dynamic target,2022.1.3,120.10176529272292,
0,1,2,2,T,0,169,169,169,,,,,,,None,577.5011395598398,None,576.5270185237805,None,576.9932236407033,None,1,[0.008666324999694552],[0.5164850037490396],577.5011395598398,None,[3 1 1 0 3 1 3 3],space,0,0.6871448011290795,0.00314851031703256,None,577.509457204929,None,1,578.2005057013271,None,None,578.7000962141034,None,,,,,,,,,,,,,,,,,,,,,,,,,,,,,,,,,,,,,,,,,,,,,,16_Lizz,16,24,F,2022-12-08_13h10.24.388,dynamic target,2022.1.3,120.10176529272292,
0,2,1,2,T,0,170,170,170,,,,,,,None,579.7325655234079,None,578.750061737383,None,579.2329837340437,None,1,[0.007736896761571188],[0.5163727539620595],579.7325655234079,None,[0 0 0 3 0 2 2 3],space,0,0.5906382069354095,0.0022171577968492784,None,579.7492156947012,None,1,580.3403827268744,None,None,580.8399479032702,None,,,,,,,,,,,,,,,,,,,,,,,,,,,,,,,,,,,,,,,,,,,,,,16_Lizz,16,24,F,2022-12-08_13h10.24.388,dynamic target,2022.1.3,120.10176529272292,
0,3,3,2,T,0,171,171,171,,,,,,,None,581.8723966868995,None,580.8982837328249,None,581.3728216325223,None,1,[0.008588391576040522],[0.5171934602631154],581.8723966868995,None,[1 3 2 1 2 0 0 2],space,0,0.6113300119952783,0.002735431100063579,None,581.8890497446157,None,1,582.5051901094466,None,None,583.0047645865392,None,,,,,,,,,,,,,,,,,,,,,,,,,,,,,,,,,,,,,,,,,,,,,,16_Lizz,16,24,F,2022-12-08_13h10.24.388,dynamic target,2022.1.3,120.10176529272292,
0,5,3,0,T,0,172,172,172,,,,,,,None,584.0372204258692,None,583.0547660297507,None,583.5376389572186,None,1,[0.008630725781358706],[0.5174493897779939],584.0372204258692,None,[0 1 3 2 1 0 1 1],space,0,1.7729863826839392,0.0026738540739188466,None,584.0538757285813,None,1,585.8273553372849,None,None,586.3269234001037,None,,,,,,,,,,,,,,,,,,,,,,,,,,,,,,,,,,,,,,,,,,,,,,16_Lizz,16,24,F,2022-12-08_13h10.24.388,dynamic target,2022.1.3,120.10176529272292,
0,6,2,2,T,0,173,173,173,,,,,,,None,587.3593728251603,None,586.3852646817911,None,586.8598016193475,None,1,[0.008632650063645997],[0.5175427174583547],587.3593728251603,None,[3 1 0 2 2 2 1 0],space,0,0.6108752400002686,0.0025093279571137828,None,587.376026524304,None,1,587.98384019992,None,None,588.4834249398501,None,,,,,,,,,,,,,,,,,,,,,,,,,,,,,,,,,,,,,,,,,,,,,,16_Lizz,16,24,F,2022-12-08_13h10.24.388,dynamic target,2022.1.3,120.10176529272292,
0,7,4,2,T,0,174,174,174,,,,,,,None,589.5158634606416,None,588.5333689753134,None,589.0162922548288,None,1,[0.009083252780783369],[0.5176822279081534],589.5158634606416,None,[1 3 0 3 0 3 2 0],space,0,0.6629530477041499,0.0024939337008618168,None,589.5325171597854,None,1,590.198613811342,None,None,590.6981886091481,None,,,,,,,,,,,,,,,,,,,,,,,,,,,,,,,,,,,,,,,,,,,,,,16_Lizz,16,24,F,2022-12-08_13h10.24.388,dynamic target,2022.1.3,120.10176529272292,
0,1,4,0,T,0,175,175,175,,,,,,,None,591.7306393170595,None,590.7481499631499,591.7472898090664,591.2310649041099,None,2,"[0.008612765815541934, 0.766835383442185]","[0.37485399509819217, 1.2744613132713312]",591.7306393170595,None,[1 0 2 3 2 3 1 3],space,0,1.2590702954933022,0.0032553079718127265,None,592.5049797212741,None,1,593.7622350664487,None,None,594.2618162785283,None,,,,,,,,,,,,,,,,,,,,,,,,,,,,,,,,,,,,,,,,,,,,,,16_Lizz,16,24,F,2022-12-08_13h10.24.388,dynamic target,2022.1.3,120.10176529272292,
0,2,3,2,T,0,176,176,176,,,,,,,None,595.285933882951,None,594.3035003332216,595.3025814885348,594.7863610735699,None,1,[0.04189867628633692],[0.5424580009403144],595.285933882951,None,[0 2 0 1 3 2 1 3],space,0,0.4838944321481904,0.0025144593762433942,None,595.3275650840301,None,1,595.8104848356952,None,None,596.3100602749286,None,,,,,,,,,,,,,,,,,,,,,,,,,,,,,,,,,,,,,,,,,,,,,,16_Lizz,16,24,F,2022-12-08_13h10.24.388,dynamic target,2022.1.3,120.10176529272292,
0,3,2,2,T,0,177,177,177,,,,,,,None,597.3425106621262,None,596.3517058439804,None,596.8429288727621,None,1,[0.008610841533482017],[0.517378512055302],597.3425106621262,None,[1 1 2 1 2 0 0 1],space,0,0.5481333817979248,0.0026587805309645773,None,597.3591624369878,None,1,597.9087075687787,None,None,598.4082669723283,None,,,,,,,,,,,,,,,,,,,,,,,,,,,,,,,,,,,,,,,,,,,,,,16_Lizz,16,24,F,2022-12-08_13h10.24.388,dynamic target,2022.1.3,120.10176529272292,
0,4,1,2,T,0,178,178,178,,,,,,,None,599.4407163973847,None,598.4498949021279,599.4490469351638,598.9411451915719,None,2,"[0.008641630046440696, 0.7417132396378747]","[0.4998008368061164, 1.250013951045048]",599.4407163973847,None,[3 0 2 0 2 3 3 1],space,0,0.6123364115160257,0.0025628871417211485,None,600.190081223946,None,1,600.8062219094907,None,None,601.3057899723095,None,,,,,,,,,,,,,,,,,,,,,,,,,,,,,,,,,,,,,,,,,,,,,,16_Lizz,16,24,F,2022-12-08_13h10.24.388,dynamic target,2022.1.3,120.10176529272292,
0,1,2,0,T,0,179,179,179,,,,,,,None,602.338229519385,None,601.3641277261465,None,601.8303434266204,None,1,[0.008609879392452058],[0.516430161710332],602.338229519385,None,[0 3 2 2 0 2 3 2],space,0,1.6726966499472837,0.0030651247611785948,None,602.3465670487221,None,1,604.0201356875427,None,space,604.5280377518484,None,0.31166894220996255,,,,,,,,,,,,,,,,,,,,,,,,,,,,,,,,,,,,,,,,,,,,,16_Lizz,16,24,F,2022-12-08_13h10.24.388,dynamic target,2022.1.3,120.10176529272292,
0,5,1,0,T,0,180,180,180,,,,,,,None,605.8852024633377,None,604.9027666686122,None,605.3856367096573,None,1,[0.008632650063418623],[0.5172543958619826],605.8852024633377,None,[1 0 3 2 2 3 2 2],space,0,2.0369699801035495,0.0028053466819528694,None,605.9018481446392,None,1,607.9417859775001,None,None,608.4413620581607,None,,,,,,,,,,,,,,,,,,,,,,,,,,,,,,,,,,,,,,,,,,,,,,16_Lizz,16,24,F,2022-12-08_13h10.24.388,dynamic target,2022.1.3,120.10176529272292,
0,8,4,0,T,0,181,181,181,,,,,,,None,609.4738092382215,None,608.4996978877155,None,608.9742450881097,None,1,[0.008775367650059707],[0.5174705568808804],609.4738092382215,None,[1 2 1 2 3 1 2 0],space,0,2.0321156578772843,0.0027941217033458088,None,609.4904619752242,None,1,611.5220663838827,None,None,612.0216386159794,None,,,,,,,,,,,,,,,,,,,,,,,,,,,,,,,,,,,,,,,,,,,,,,16_Lizz,16,24,F,2022-12-08_13h10.24.388,dynamic target,2022.1.3,120.10176529272292,
0,1,1,2,T,0,182,182,182,,,,,,,None,613.0540748917751,None,612.0716237027934,None,612.5545091380948,None,1,[0.008653817166305089],[0.5175629224199838],613.0540748917751,None,[1 1 2 1 0 1 3 2],space,0,0.6591785684311162,0.0023925881787363323,None,613.0707372501881,None,1,613.7285068918163,None,None,614.2280771996308,None,,,,,,,,,,,,,,,,,,,,,,,,,,,,,,,,,,,,,,,,,,,,,,16_Lizz,16,24,F,2022-12-08_13h10.24.388,dynamic target,2022.1.3,120.10176529272292,
0,2,1,2,T,0,183,183,183,,,,,,,None,615.2605153997088,None,614.2864229713095,None,614.760959908866,None,1,[0.008637140055043346],[0.517679662198816],615.2605153997088,None,[0 1 0 1 1 1 0 1],space,0,0.5643380817928119,0.0023903431829239707,None,615.2771844931087,None,1,615.8433785133382,None,None,616.3429279747637,None,,,,,,,,,,,,,,,,,,,,,,,,,,,,,,,,,,,,,,,,,,,,,,16_Lizz,16,24,F,2022-12-08_13h10.24.388,dynamic target,2022.1.3,120.10176529272292,
0,1,2,1,T,0,184,184,184,,,,,,,None,617.375391511222,None,616.3929598857746,None,616.8758183811271,None,1,[0.008645799324312975],[0.5173265564394569],617.375391511222,None,[2 0 3 2 0 1 2 2],space,0,3.05823906978344,0.0027043218731250818,None,617.392046813934,None,1,620.4477862096967,None,None,620.9473263704257,None,,,,,,,,,,,,,,,,,,,,,,,,,,,,,,,,,,,,,,,,,,,,,,16_Lizz,16,24,F,2022-12-08_13h10.24.388,dynamic target,2022.1.3,120.10176529272292,
0,2,3,2,T,0,185,185,185,,,,,,,None,621.979790869025,None,621.0056936299209,None,621.4802174182164,None,1,[0.00864515789703546],[0.5171382975106553],621.979790869025,None,[1 3 1 3 3 2 0 2],space,0,0.5017748611089701,0.0029448571317516326,None,621.996443285314,None,1,622.4960154532678,None,None,622.995579346809,None,,,,,,,,,,,,,,,,,,,,,,,,,,,,,,,,,,,,,,,,,,,,,,16_Lizz,16,24,F,2022-12-08_13h10.24.388,dynamic target,2022.1.3,120.10176529272292,
0,3,2,2,T,0,186,186,186,,,,,,,None,624.028056994669,None,623.0538975371114,None,623.5284681496039,None,1,[0.008712507769359945],[0.5171273932455733],624.028056994669,None,[1 3 1 1 2 0 3 1],space,0,0.6451188015128082,0.00290669220385098,None,624.0446920924194,None,1,624.6941453076702,None,None,625.1936970140915,None,,,,,,,,,,,,,,,,,,,,,,,,,,,,,,,,,,,,,,,,,,,,,,16_Lizz,16,24,F,2022-12-08_13h10.24.388,dynamic target,2022.1.3,120.10176529272292,
0,4,3,2,T,0,187,187,187,,,,,,,None,626.2261621541184,None,625.2353326410193,None,625.7265931933011,None,1,[0.008676267123746584],[0.5176257823006836],626.2261621541184,None,[0 2 1 3 3 3 2 3],space,0,0.670297390924361,0.0024682766065780015,None,626.2428187396849,None,1,626.917237911179,None,None,627.4168104639892,None,,,,,,,,,,,,,,,,,,,,,,,,,,,,,,,,,,,,,,,,,,,,,,16_Lizz,16,24,F,2022-12-08_13h10.24.388,dynamic target,2022.1.3,120.10176529272292,
0,5,2,2,T,0,188,188,188,,,,,,,None,628.4492611719006,None,627.4584473737718,None,627.9496896453741,None,1,[0.00889595599301174],[0.5173704942135373],628.4492611719006,None,[2 2 0 3 2 3 2 3],space,0,0.5280801176704699,0.0025516621626593405,None,628.465919040322,None,1,628.9987915508623,None,None,629.4983952128995,None,,,,,,,,,,,,,,,,,,,,,,,,,,,,,,,,,,,,,,,,,,,,,,16_Lizz,16,24,F,2022-12-08_13h10.24.388,dynamic target,2022.1.3,120.10176529272292,
0,6,1,2,T,0,189,189,189,,,,,,,None,630.5224887637962,None,629.531669513535,630.530815773725,630.022936800804,None,2,"[0.06645219473989528, 0.0914662580348704]","[0.07557136745276694, 0.5916044856298868]",630.5224887637962,None,[1 3 2 0 2 1 0 2],space,0,0.5238351514319675,0.0029509506914564554,None,630.6140801001652,None,1,631.1386445228839,None,None,631.6382058507155,None,,,,,,,,,,,,,,,,,,,,,,,,,,,,,,,,,,,,,,,,,,,,,,16_Lizz,16,24,F,2022-12-08_13h10.24.388,dynamic target,2022.1.3,120.10176529272292,
0,7,3,2,T,0,190,190,190,,,,,,,None,632.6706546343446,None,631.6965400767019,None,632.171080221395,None,1,[0.009409097877323802],[0.5176665129379217],632.6706546343446,None,[2 0 2 3 0 0 0 2],space,0,0.7063353454636854,0.0024390916619267955,None,632.6873086542021,None,0,633.3950342618423,None,None,633.8946097010756,None,,,,,,,,,,,,,,,,,,,,,,,,,,,,,,,,,,,,,,,,,,,,,,16_Lizz,16,24,F,2022-12-08_13h10.24.388,dynamic target,2022.1.3,120.10176529272292,
0,8,1,2,T,0,191,191,191,,,,,,,None,634.9270607938435,None,633.9445498879747,None,634.4191532132625,None,1,[0.009137774105965946],[0.5164740994839576],634.9270607938435,None,[0 3 3 2 1 3 0 0],space,0,0.6818943975110869,0.0029307457302820694,None,634.9353874189155,None,1,635.6181361660476,None,None,636.117711605281,None,,,,,,,,,,,,,,,,,,,,,,,,,,,,,,,,,,,,,,,,,,,,,,16_Lizz,16,24,F,2022-12-08_13h10.24.388,dynamic target,2022.1.3,120.10176529272292,
0,1,4,2,T,0,192,192,192,,,,,,,None,637.1501610303376,None,636.1676678278641,None,636.6505689781357,None,1,[0.008662155721822273],[0.5172483023022778],637.1501610303376,None,[2 1 3 1 2 0 2 2],space,0,0.5619705734238778,0.0027495425017605157,None,637.1668121637717,None,1,637.7329968833044,None,None,638.2325707189694,None,,,,,,,,,,,,,,,,,,,,,,,,,,,,,,,,,,,,,,,,,,,,,,16_Lizz,16,24,F,2022-12-08_13h10.24.388,dynamic target,2022.1.3,120.10176529272292,
0,2,2,2,T,0,193,193,193,,,,,,,None,639.2733580582199,None,638.2991828856918,639.2983243351766,638.7737708167231,None,1,[0.074712496223583],[0.5751210854491546],639.2733580582199,None,[0 0 0 3 1 2 3 1],space,0,0.5411087901147766,0.002648517693614849,None,639.3482835083255,None,1,639.8894852737901,None,None,640.3890600715962,None,,,,,,,,,,,,,,,,,,,,,,,,,,,,,,,,,,,,,,,,,,,,,,16_Lizz,16,24,F,2022-12-08_13h10.24.388,dynamic target,2022.1.3,120.10176529272292,
0,3,3,2,T,0,194,194,194,,,,,,,None,641.421509175939,None,640.4473878833089,None,640.9219363665577,None,1,[0.008912312390521038],[0.5175709402619759],641.421509175939,None,[3 3 2 2 1 2 0 3],space,0,0.6103123874956964,0.002534343624347457,None,641.4381641579373,None,1,642.0459765506987,None,None,642.545557121351,None,,,,,,,,,,,,,,,,,,,,,,,,,,,,,,,,,,,,,,,,,,,,,,16_Lizz,16,24,F,2022-12-08_13h10.24.388,dynamic target,2022.1.3,120.10176529272292,
0,4,4,2,T,0,195,195,195,,,,,,,None,643.5779988492793,None,642.587194672561,None,643.0784282848938,None,1,[0.009225008226394493],[0.5177322592419387],643.5779988492793,None,[2 2 2 1 2 2 0 3],space,0,0.5337638054670606,0.0022999019258804765,None,643.5946551141324,None,1,644.1275314732368,None,None,644.6271065917566,None,,,,,,,,,,,,,,,,,,,,,,,,,,,,,,,,,,,,,,,,,,,,,,16_Lizz,16,24,F,2022-12-08_13h10.24.388,dynamic target,2022.1.3,120.10176529272292,
0,3,2,1,T,0,196,196,196,,,,,,,None,645.6595621103729,None,644.6854446663069,None,645.1599806417223,None,1,[0.00859352299494276],[0.5174721604491879],645.6595621103729,None,[3 2 0 3 3 3 2 3],space,0,2.101153125573319,0.0026760990695038345,None,645.6762100366705,None,1,647.7744141683606,None,None,648.273989607594,None,,,,,,,,,,,,,,,,,,,,,,,,,,,,,,,,,,,,,,,,,,,,,,16_Lizz,16,24,F,2022-12-08_13h10.24.388,dynamic target,2022.1.3,120.10176529272292,
0,4,2,2,T,0,197,197,197,,,,,,,None,649.3064281283855,None,648.3156297245134,None,648.806864619701,None,1,[0.009418077860345875],[0.5175000625390567],649.3064281283855,None,[0 1 2 1 0 2 1 3],space,0,0.693622255278342,0.002564490709801248,None,649.323089845371,None,1,650.0141678474274,None,None,650.5137410416652,None,,,,,,,,,,,,,,,,,,,,,,,,,,,,,,,,,,,,,,,,,,,,,,16_Lizz,16,24,F,2022-12-08_13h10.24.388,dynamic target,2022.1.3,120.10176529272292,
0,1,3,0,T,0,198,198,198,,,,,,,None,651.5461904667218,None,650.555375706452,None,651.0466259958962,None,1,[0.009110192729622213],[0.5177466913571607],651.5461904667218,None,[2 3 3 3 1 2 0 3],space,0,2.021411518169316,0.002325238306184474,None,651.562834544455,None,1,653.5861414488434,None,None,654.0856825717132,None,,,,,,,,,,,,,,,,,,,,,,,,,,,,,,,,,,,,,,,,,,,,,,16_Lizz,16,24,F,2022-12-08_13h10.24.388,dynamic target,2022.1.3,120.10176529272292,
0,8,2,1,T,0,199,199,199,,,,,,,None,655.1181361660476,None,654.127319160782,655.1264692695361,654.6185646395211,None,1,[0.24967431526010841],[0.7499427526083764],655.1181361660476,None,[2 1 3 3 3 3 2 0],space,0,1.6727059506440582,0.0026148427571115462,None,655.3679243346635,None,1,657.0414971427617,None,None,657.5410674505764,None,,,,,,,,,,,,,,,,,,,,,,,,,,,,,,,,,,,,,,,,,,,,,,16_Lizz,16,24,F,2022-12-08_13h10.24.388,dynamic target,2022.1.3,120.10176529272292,
0,1,3,2,T,0,200,200,200,,,,,,,None,658.5735187999151,None,657.5910246353005,None,658.0739450283927,None,1,[0.009398193612241812],[0.5175144946547334],658.5735187999151,None,[3 1 1 1 1 1 1 2],space,0,0.49810429306739934,0.002391626037479,None,658.5901724990588,None,1,659.0897295934697,None,None,659.5893197855324,None,,,,,,,,,,,,,,,,,,,,,,,,,,,,,,,,,,,,,,,,,,,,,,16_Lizz,16,24,F,2022-12-08_13h10.24.388,dynamic target,2022.1.3,120.10176529272292,
0,2,3,2,T,0,201,201,201,,,,,,,None,660.6217663241657,None,659.6476492008135,None,660.1222089090411,None,1,[0.009280491692607029],[0.5174442583590917],660.6217663241657,None,[3 0 0 2 2 0 3 0],space,0,0.5133048385373513,0.0026536491122897132,None,660.6384071947623,None,1,661.1546462111207,None,None,661.6542222917814,None,,,,,,,,,,,,,,,,,,,,,,,,,,,,,,,,,,,,,,,,,,,,,,16_Lizz,16,24,F,2022-12-08_13h10.24.388,dynamic target,2022.1.3,120.10176529272292,
0,3,4,2,T,0,202,202,202,,,,,,,None,662.6866681889876,None,661.6958482972991,None,662.18709570032,None,1,[0.009209934683440224],[0.517668757933734],662.6866681889876,None,[2 3 0 2 3 2 1 3],space,0,0.48087138502182825,0.0024580137690008996,None,662.7033164359987,None,1,663.1862426019372,None,None,663.6858392082735,None,,,,,,,,,,,,,,,,,,,,,,,,,,,,,,,,,,,,,,,,,,,,,,16_Lizz,16,24,F,2022-12-08_13h10.24.388,dynamic target,2022.1.3,120.10176529272292,
0,4,3,2,T,0,203,203,203,,,,,,,None,664.7182520719707,None,663.7274793251927,None,664.2186924118503,None,1,[0.009086139203873245],[0.5174513140602812],664.7182520719707,None,[0 0 2 2 3 2 3 1],space,0,0.4803867866546625,0.00236532751591767,None,664.7349282210719,None,1,665.217848614164,None,None,665.7174157148419,None,,,,,,,,,,,,,,,,,,,,,,,,,,,,,,,,,,,,,,,,,,,,,,16_Lizz,16,24,F,2022-12-08_13h10.24.388,dynamic target,2022.1.3,120.10176529272292,
0,5,3,2,T,0,204,204,204,,,,,,,None,666.7498654606122,None,665.7757521858241,None,666.2502920098036,None,1,[0.008637140055043346],[0.517400320585466],666.7498654606122,None,[3 2 2 2 3 2 1 2],space,0,0.5616604432973418,0.0026821926296634047,None,666.7665178769012,None,1,667.3326990685832,None,None,667.8322738663895,None,,,,,,,,,,,,,,,,,,,,,,,,,,,,,,,,,,,,,,,,,,,,,,16_Lizz,16,24,F,2022-12-08_13h10.24.388,dynamic target,2022.1.3,120.10176529272292,
0,6,2,2,T,0,205,205,205,,,,,,,None,668.8647445226915,None,667.8822387482417,None,668.3651517649193,None,1,[0.009034825015305614],[0.5091813911660665],668.8647445226915,None,[1 1 3 3 1 3 2 2],space,0,0.6462894064363809,0.0024432609397990745,None,668.8730509428019,None,1,669.5224954987834,None,None,670.0220715794443,None,,,,,,,,,,,,,,,,,,,,,,,,,,,,,,,,,,,,,,,,,,,,,,16_Lizz,16,24,F,2022-12-08_13h10.24.388,dynamic target,2022.1.3,120.10176529272292,
0,7,3,2,T,0,206,206,206,,,,,,,None,671.0545187595051,None,670.0720425548564,None,670.5549456294102,None,1,[0.008976134412250758],[0.5175917866508826],671.0545187595051,None,[1 2 3 3 2 3 2 2],space,0,0.6074926728413175,0.0021004180182444543,None,671.071186249337,None,1,671.6789845306964,None,None,672.1785711949086,None,,,,,,,,,,,,,,,,,,,,,,,,,,,,,,,,,,,,,,,,,,,,,,16_Lizz,16,24,F,2022-12-08_13h10.24.388,dynamic target,2022.1.3,120.10176529272292,
0,8,2,2,T,0,207,207,207,,,,,,,None,673.2110167714011,None,672.228521965359,None,672.7114378684598,None,1,[0.008639064337103264],[0.5169923727873993],673.2110167714011,None,[0 3 3 0 0 3 1 2],space,0,0.46850594846318927,0.0030205455598206754,None,673.2276621319891,None,1,673.6939413337711,None,None,674.1935077930217,None,,,,,,,,,,,,,,,,,,,,,,,,,,,,,,,,,,,,,,,,,,,,,,16_Lizz,16,24,F,2022-12-08_13h10.24.388,dynamic target,2022.1.3,120.10176529272292,
0,1,2,2,T,0,208,208,208,,,,,,,None,675.2259668394886,None,674.2435198197845,675.2426077100852,674.7263805601328,None,2,"[0.008726939884809326, 0.7251054025502981]","[0.491497559689833, 1.2332653206528903]",675.2259668394886,None,[0 1 2 0 2 2 1 2],space,0,0.4882740981313418,0.0024137552813954244,None,675.9586696283507,None,1,676.4499093342433,None,None,676.9494854149042,None,,,,,,,,,,,,,,,,,,,,,,,,,,,,,,,,,,,,,,,,,,,,,,16_Lizz,16,24,F,2022-12-08_13h10.24.388,dynamic target,2022.1.3,120.10176529272292,
0,2,2,2,T,0,209,209,209,,,,,,,None,677.9819300292554,None,676.9911155896993,None,677.4823440706134,None,1,[0.009220838948522214],[0.5175539424369617],677.9819300292554,None,[0 0 1 1 0 1 0 1],space,0,0.48064784758867063,0.0025981656460771774,None,677.9985859733949,None,1,678.4815073286281,None,None,678.9810853335711,None,,,,,,,,,,,,,,,,,,,,,,,,,,,,,,,,,,,,,,,,,,,,,,16_Lizz,16,24,F,2022-12-08_13h10.24.388,dynamic target,2022.1.3,120.10176529272292,
0,3,4,2,T,0,210,210,210,,,,,,,None,680.0135293064952,None,679.0227155083664,None,679.5139571385412,None,1,[0.00959286681472804],[0.5175452831676921],680.0135293064952,None,[0 1 3 3 3 3 0 2],space,0,0.464816137600792,0.00231850331942951,None,680.0302000034637,None,1,680.4964695838355,None,None,680.996025138821,None,,,,,,,,,,,,,,,,,,,,,,,,,,,,,,,,,,,,,,,,,,,,,,16_Lizz,16,24,F,2022-12-08_13h10.24.388,dynamic target,2022.1.3,120.10176529272292,
0,4,1,2,T,0,211,211,211,,,,,,,None,682.0284825817193,None,681.0459929070962,None,681.5289014337825,None,1,[0.00864195076019314],[0.5170853797540076],682.0284825817193,None,[2 1 3 2 3 3 1 1],space,0,0.4982152599998244,0.0030003405977367947,None,682.0451285837348,None,1,682.5446997895476,None,None,683.0442761909222,None,,,,,,,,,,,,,,,,,,,,,,,,,,,,,,,,,,,,,,,,,,,,,,16_Lizz,16,24,F,2022-12-08_13h10.24.388,dynamic target,2022.1.3,120.10176529272292,
0,6,4,0,T,0,212,212,212,,,,,,,None,684.076755121637,None,683.1026177933231,None,683.577161145153,None,1,[0.008689095670888491],[0.5171248275362359],684.076755121637,None,[2 0 0 3 3 1 1 0],space,0,1.0096297805041559,0.0029086164861382713,None,684.0933773908403,None,1,685.1008500195314,None,None,685.6004305901837,None,,,,,,,,,,,,,,,,,,,,,,,,,,,,,,,,,,,,,,,,,,,,,,16_Lizz,16,24,F,2022-12-08_13h10.24.388,dynamic target,2022.1.3,120.10176529272292,
0,7,4,2,T,0,213,213,213,,,,,,,None,686.6328742423941,None,685.6587596847512,None,686.1333014330128,None,1,[0.00862783935826883],[0.5172572822850725],686.6328742423941,None,[2 1 2 0 0 0 1 2],space,0,0.500781610849117,0.002488802281959579,None,686.6495061330077,None,1,687.1490988266369,None,None,687.648684528708,None,,,,,,,,,,,,,,,,,,,,,,,,,,,,,,,,,,,,,,,,,,,,,,16_Lizz,16,24,F,2022-12-08_13h10.24.388,dynamic target,2022.1.3,120.10176529272292,
0,8,2,2,T,0,214,214,214,,,,,,,None,688.6811515930169,None,687.707012340421,None,688.1815560129646,None,1,[0.008737202722386428],[0.5174019241537735],688.6811515930169,None,[1 1 3 3 3 3 0 2],space,0,0.612979763153362,0.0027941217033458088,None,688.6977831629167,None,1,689.3139164720469,None,None,689.8134976841264,None,,,,,,,,,,,,,,,,,,,,,,,,,,,,,,,,,,,,,,,,,,,,,,16_Lizz,16,24,F,2022-12-08_13h10.24.388,dynamic target,2022.1.3,120.10176529272292,
0,1,3,2,T,0,215,215,215,,,,,,,None,690.8459403741958,None,689.8634532652823,None,690.3463666026737,None,1,[0.008632970777171067],[0.5173724184953699],690.8459403741958,None,[1 2 2 1 3 0 0 2],space,0,0.5443101540458883,0.002715546851959516,None,690.8626001668995,None,1,691.4121129066089,None,None,691.9117043815262,None,,,,,,,,,,,,,,,,,,,,,,,,,,,,,,,,,,,,,,,,,,,,,,16_Lizz,16,24,F,2022-12-08_13h10.24.388,dynamic target,2022.1.3,120.10176529272292,
