tar_letter,tar_pos,tar_ori,tar_pos_type,block,trials.thisRepN,trials.thisTrialN,trials.thisN,trials.thisIndex,instructions_key.keys,instructions_key.rt,instructions_key.started,instructions_key.stopped,instruction_text.started,instruction_text.stopped,fix_key.keys,fix_key.started,fix_key.stopped,fixcross.started,fixcross.stopped,roi.started,roi.stopped,roi.numLooks,roi.timesOn,roi.timesOff,RedFixCross.started,RedFixCross.stopped,distori,search_resp.keys,search_resp.corr,search_resp.rt,search_resp.started,search_resp.stopped,fixcross_shape.started,fixcross_shape.stopped,correct,feedback_text.started,feedback_text.stopped,break_key.keys,break_key.started,break_key.stopped,break_key.rt,text_q1.started,text_q1.stopped,key_resp1.keys,key_resp1.rt,key_resp1.started,key_resp1.stopped,text_q2.started,text_q2.stopped,key_resp_2.keys,key_resp_2.rt,key_resp_2.started,key_resp_2.stopped,image.started,image.stopped,text_q1_2.started,text_q1_2.stopped,slider.response,slider.rt,slider.started,slider.stopped,mouse.x,mouse.y,mouse.leftButton,mouse.midButton,mouse.rightButton,mouse.time,mouse.started,mouse.stopped,key_resp_3.keys,key_resp_3.rt,key_resp_3.started,key_resp_3.stopped,text_q4.started,text_q4.stopped,key_resp1_3.keys,key_resp1_3.rt,key_resp1_3.started,key_resp1_3.stopped,finish_text.started,finish_text.stopped,key_resp.keys,key_resp.rt,key_resp.started,key_resp.stopped,participant,group,age,gender,date,expName,psychopyVersion,frameRate,
,,,,,,,,,space,3.3512247749581547,58.30898735326127,None,,,,,,,,,,,,,,,,,,,,,,,,,,,,,,,,,,,,,,,,,,,,,,,,,,,,,,,,,,,,,,,,,,,,,,,,,,17_YYF,17,25,F,2022-12-09_09h48.52.719,dynamic target,2022.1.3,120.13149580837877,
0,2,2,0,mix,0,0,0,0,,,,,58.30898735326127,None,None,114.11975836078955,None,113.17163394789759,None,113.6201847508546,None,1,[0.008945051004502602],[0.5176051470843959],114.11975836078955,None,[1 3 2 2 0 1 2 1],space,0,3.4152143940682436,0.0067683609913729015,None,114.14472118194908,None,1,117.56681623726718,None,None,118.06639674256621,None,,,,,,,,,,,,,,,,,,,,,,,,,,,,,,,,,,,,,,,,,,,,,,17_YYF,17,25,F,2022-12-09_09h48.52.719,dynamic target,2022.1.3,120.13149580837877,
1,3,2,2,mix,0,1,1,1,,,,,,,None,119.09885771079689,None,118.11635493741733,None,118.59928313871842,None,1,[0.008627543547390815],[0.5170185600745754],119.09885771079689,None,[3 2 1 3 0 3 0 2],space,0,2.856419870462105,0.0028445781754271593,None,119.11551498587096,None,1,121.97140540667124,None,None,122.47098911911598,None,,,,,,,,,,,,,,,,,,,,,,,,,,,,,,,,,,,,,,,,,,,,,,17_YYF,17,25,F,2022-12-09_09h48.52.719,dynamic target,2022.1.3,120.13149580837877,
0,4,2,2,mix,0,2,2,2,,,,,,,None,123.50345714306786,None,122.52927306507263,None,123.00386364882797,None,1,[0.008660897866320738],[0.517154863781343],123.50345714306786,None,[1 3 3 3 1 2 0 0],space,0,4.499778175703341,0.0027717759603547165,None,123.52008940240285,None,1,128.0245709079145,None,None,128.52415590321743,None,,,,,,,,,,,,,,,,,,,,,,,,,,,,,,,,,,,,,,,,,,,,,,17_YYF,17,25,F,2022-12-09_09h48.52.719,dynamic target,2022.1.3,120.13149580837877,
0,5,1,2,mix,0,3,3,3,,,,,,,None,129.5566046842937,None,128.58248218350218,None,129.057059297244,None,1,[0.008610224958829349],[0.5171462044868349],129.5566046842937,None,[2 3 3 3 0 2 1 2],space,0,5.134677633278898,0.002722065197303891,None,129.57325201721505,None,1,134.71055154252508,None,None,135.21011889852525,None,,,,,,,,,,,,,,,,,,,,,,,,,,,,,,,,,,,,,,,,,,,,,,17_YYF,17,25,F,2022-12-09_09h48.52.719,dynamic target,2022.1.3,120.13149580837877,
1,6,4,2,mix,0,4,4,4,,,,,,,None,136.24258820533578,None,135.26845383810405,None,135.74301619897415,None,1,[0.008639730702725501],[0.5174409412079513],136.24258820533578,None,[0 2 3 0 1 1 0 0],space,0,4.430938389646144,0.00195074657585792,None,136.25924195254902,None,1,140.6887993952605,None,None,141.18837829698623,None,,,,,,,,,,,,,,,,,,,,,,,,,,,,,,,,,,,,,,,,,,,,,,17_YYF,17,25,F,2022-12-09_09h48.52.719,dynamic target,2022.1.3,120.13149580837877,
0,4,2,0,mix,0,5,5,5,,,,,,,None,142.22915667774305,None,141.24667795795904,None,141.72958018137706,None,1,[0.009500528698026756],[0.5174091904618763],142.22915667774305,None,[2 2 3 2 3 2 0 1],space,0,3.5652600798630374,0.002381466287715739,None,142.2458107456714,None,1,145.8094426076409,None,None,146.3090179815058,None,,,,,,,,,,,,,,,,,,,,,,,,,,,,,,,,,,,,,,,,,,,,,,17_YYF,17,25,F,2022-12-09_09h48.52.719,dynamic target,2022.1.3,120.13149580837877,
0,5,4,2,mix,0,6,6,6,,,,,,,None,147.34147093187175,None,146.36732854677484,None,146.84189635979328,None,1,[0.008673085021200677],[0.5176160513810828],147.34147093187175,None,[2 2 0 1 1 2 2 0],space,0,4.324224774637514,0.002231692567875143,None,147.35813109337732,None,1,151.68775643137042,None,None,152.1873568209744,None,,,,,,,,,,,,,,,,,,,,,,,,,,,,,,,,,,,,,,,,,,,,,,17_YYF,17,25,F,2022-12-09_09h48.52.719,dynamic target,2022.1.3,120.13149580837877,
1,6,2,2,mix,0,7,7,7,,,,,,,None,153.21979886704366,None,152.23735735015362,153.23645582140307,152.72022589853805,None,2,"[0.00870740148366167, 0.7167756508338243]","[0.22506468011761172, 1.224571421057135]",153.21979886704366,None,[0 1 0 3 2 1 1 3],space,0,5.898861958224643,0.0030113497696220293,None,153.9441818682717,None,1,159.84749635748403,None,None,160.3470669206299,None,,,,,,,,,,,,,,,,,,,,,,,,,,,,,,,,,,,,,,,,,,,,,,17_YYF,17,25,F,2022-12-09_09h48.52.719,dynamic target,2022.1.3,120.13149580837877,
0,7,2,2,mix,0,8,8,8,,,,,,,None,161.3795064009828,None,160.4054057087842,None,160.879930225331,None,1,[0.008622412113709288],[0.5171195851748962],161.3795064009828,None,[2 0 1 3 1 1 2 0],space,0,4.989664601041113,0.00279743312876235,None,161.39617073177806,None,1,166.38358460788004,None,None,166.88315837817208,None,,,,,,,,,,,,,,,,,,,,,,,,,,,,,,,,,,,,,,,,,,,,,,17_YYF,17,25,F,2022-12-09_09h48.52.719,dynamic target,2022.1.3,120.13149580837877,
0,3,2,0,mix,0,9,9,9,,,,,,,None,167.91562127069074,None,166.93311881802583,None,167.41602745573573,None,1,[0.009734971073157794],[0.5172959782071302],167.91562127069074,None,[3 2 0 2 0 1 1 3],space,0,3.973739838121219,0.0025286742907155713,None,167.93225930288827,None,1,171.9038927376423,None,None,172.40345977292782,None,,,,,,,,,,,,,,,,,,,,,,,,,,,,,,,,,,,,,,,,,,,,,,17_YYF,17,25,F,2022-12-09_09h48.52.719,dynamic target,2022.1.3,120.13149580837877,
1,4,1,2,mix,0,10,10,10,,,,,,,None,173.42757189860185,None,172.43676069270532,173.43591304400843,172.92800406152992,None,6,"[0.0086843100320948, 0.5338945625085216, 0.5919269078590332, 0.6172396286510775, 0.6339264094685859, 0.6754053912763993]","[0.12514668684161734, 0.541933594758575, 0.6001683110239355, 0.6255454954512061, 0.6582686478705, 1.1831046264042016]",173.42757189860185,None,[3 2 3 0 0 3 3 2],space,0,3.9387710420487565,0.0025854407758743037,None,174.1103575743332,None,1,178.0486726103636,None,None,178.54823579707363,None,,,,,,,,,,,,,,,,,,,,,,,,,,,,,,,,,,,,,,,,,,,,,,17_YYF,17,25,F,2022-12-09_09h48.52.719,dynamic target,2022.1.3,120.13149580837877,
0,5,3,2,mix,0,11,11,11,,,,,,,None,179.57237935277908,None,178.58154665900383,179.58068201243304,179.07278136853438,None,5,"[0.008688800036907196, 0.35832127713683803, 0.4502278196187035, 0.4665307050559022, 0.5337534480831891]","[0.35012798116258637, 0.3750151136759996, 0.45826428615191617, 0.4749715927041507, 1.0412955330552904]",179.57237935277908,None,[3 3 0 1 3 1 1 2],space,0,3.040603060077956,0.0031822906521483674,None,180.11357049323033,None,1,183.15264892623145,None,None,183.65222814867184,None,,,,,,,,,,,,,,,,,,,,,,,,,,,,,,,,,,,,,,,,,,,,,,17_YYF,17,25,F,2022-12-09_09h48.52.719,dynamic target,2022.1.3,120.13149580837877,
1,6,3,2,mix,0,12,12,12,,,,,,,None,184.68467628831877,None,183.70217736351424,None,184.1850917740876,None,1,[0.008216387425818539],[0.5166542282854607],184.68467628831877,None,[3 1 2 0 2 3 2 1],space,0,4.851266948928696,0.0025880064922603196,None,184.70135280626891,None,1,189.55550816106415,None,None,190.05510534352243,None,,,,,,,,,,,,,,,,,,,,,,,,,,,,,,,,,,,,,,,,,,,,,,17_YYF,17,25,F,2022-12-09_09h48.52.719,dynamic target,2022.1.3,120.13149580837877,
1,7,1,2,mix,0,13,13,13,,,,,,,None,191.08755797317372,None,190.11339185519637,None,190.58797570394472,None,1,[0.008611828532139043],[0.5173710254243815],191.08755797317372,None,[3 0 0 0 0 2 3 2],space,0,6.240035908373557,0.002450419927299663,None,191.10422390754184,None,1,197.3488951542272,None,None,197.84847501809645,None,,,,,,,,,,,,,,,,,,,,,,,,,,,,,,,,,,,,,,,,,,,,,,17_YYF,17,25,F,2022-12-09_09h48.52.719,dynamic target,2022.1.3,120.13149580837877,
1,8,4,2,mix,0,14,14,14,,,,,,,None,198.8809010284358,None,197.90682310697412,None,198.38134601994807,None,1,[0.00864935214030993],[0.517166730221561],198.8809010284358,None,[1 0 0 2 3 3 3 3],space,0,6.959189657992283,0.0027204616235394496,None,198.8976076935587,None,1,205.85831919249222,None,None,206.35790803637065,None,,,,,,,,,,,,,,,,,,,,,,,,,,,,,,,,,,,,,,,,,,,,,,17_YYF,17,25,F,2022-12-09_09h48.52.719,dynamic target,2022.1.3,120.13149580837877,
1,1,1,2,mix,0,15,15,15,,,,,,,None,207.39033949885788,None,206.39951033294346,207.39867262639928,206.89075530534137,None,2,"[0.009390523588990618, 0.35833025714555333]","[0.10964590862749901, 0.8586318892303098]",207.39033949885788,None,[1 3 3 2 2 3 3 3],space,0,4.171187142306735,0.0025286742907155713,None,207.74839875216367,None,1,211.91982391485408,None,None,212.4193739522657,None,,,,,,,,,,,,,,,,,,,,,,,,,,,,,,,,,,,,,,,,,,,,,,17_YYF,17,25,F,2022-12-09_09h48.52.719,dynamic target,2022.1.3,120.13149580837877,
0,2,2,2,mix,0,16,16,16,,,,,,,None,213.45185191837072,None,212.46934818284717,213.46850277915246,212.95227542200428,None,1,[0.39991058476880426],[0.9001679582379438],213.45185191837072,None,[1 3 2 1 3 2 3 2],space,0,5.348834168304165,0.0026601672780088848,None,213.85151394932154,None,1,219.20528653123756,None,None,219.7048724886845,None,,,,,,,,,,,,,,,,,,,,,,,,,,,,,,,,,,,,,,,,,,,,,,17_YYF,17,25,F,2022-12-09_09h48.52.719,dynamic target,2022.1.3,120.13149580837877,
0,3,2,2,mix,0,17,17,17,,,,,,,None,220.73731357261022,None,219.75481785495185,220.75396667839414,220.2377316240959,None,1,[0.3081951881904388],[0.8083852115933041],220.73731357261022,None,[0 1 0 0 2 2 1 1],space,0,6.169958163945921,0.002950734708520031,None,221.04538592710742,None,1,227.21513952528494,None,None,227.71469309055692,None,,,,,,,,,,,,,,,,,,,,,,,,,,,,,,,,,,,,,,,,,,,,,,17_YYF,17,25,F,2022-12-09_09h48.52.719,dynamic target,2022.1.3,120.13149580837877,
1,2,1,1,mix,0,18,18,18,,,,,,,None,228.74718741310653,None,227.76469490259433,228.76381325814964,228.24758718385965,None,3,"[0.12521018833331254, 0.20008454036951662, 0.7252085206173433]","[0.1337963596965892, 0.48388681725054994, 1.2334491219958181]",228.74718741310653,None,[2 0 0 0 2 2 0 1],space,0,3.7666127257748485,0.0023320762393268524,None,229.47987179113034,None,1,233.25168174720193,None,None,233.75122023888753,None,,,,,,,,,,,,,,,,,,,,,,,,,,,,,,,,,,,,,,,,,,,,,,17_YYF,17,25,F,2022-12-09_09h48.52.719,dynamic target,2022.1.3,120.13149580837877,
1,1,2,1,mix,0,19,19,19,,,,,,,None,234.78367350996814,None,233.8011970351863,None,234.28412170862657,None,1,[0.009421312191079778],[0.5176673657178981],234.78367350996814,None,[0 2 3 2 2 2 3 2],space,0,8.638288719356751,0.0022467661547125317,None,234.80033912362205,None,1,243.44297068957167,None,None,243.94255408130175,None,,,,,,,,,,,,,,,,,,,,,,,,,,,,,,,,,,,,,,,,,,,,,,17_YYF,17,25,F,2022-12-09_09h48.52.719,dynamic target,2022.1.3,120.13149580837877,
1,2,3,2,mix,0,20,20,20,,,,,,,None,244.96667422484097,None,243.97583896534934,244.9750108802432,244.46712274421407,None,1,[0.4664867671549473],[0.9671533724581423],244.96667422484097,None,[2 3 1 2 0 1 2 2],space,0,4.277081972932592,0.002117838883350487,None,245.43295028250168,None,1,249.71264388459804,None,None,250.21221893774828,None,,,,,,,,,,,,,,,,,,,,,,,,,,,,,,,,,,,,,,,,,,,,,,17_YYF,17,25,F,2022-12-09_09h48.52.719,dynamic target,2022.1.3,120.13149580837877,
1,3,4,2,mix,0,21,21,21,,,,,,,None,251.24468824455926,None,250.25384208077094,251.25299956350773,250.74509667460688,None,2,"[0.008695855757650861, 0.5501855815050476]","[0.06757520837618358, 1.0503512305976983]",251.24468824455926,None,[3 3 1 3 3 3 1 1],space,0,3.3551676402930752,0.002467738516315876,None,251.79420353254318,None,1,255.14968744758335,None,None,255.64925672787103,None,,,,,,,,,,,,,,,,,,,,,,,,,,,,,,,,,,,,,,,,,,,,,,17_YYF,17,25,F,2022-12-09_09h48.52.719,dynamic target,2022.1.3,120.13149580837877,
1,4,1,2,mix,0,22,22,22,,,,,,,None,256.6733903414233,None,255.6825493090687,None,256.1738144864862,None,1,[0.008645824279938097],[0.5175487013143538],256.6733903414233,None,[2 2 0 0 1 3 3 3],space,0,2.411565944738868,0.0023772969980200287,None,256.69003703291537,None,1,259.10462864937153,None,None,259.6042181346793,None,,,,,,,,,,,,,,,,,,,,,,,,,,,,,,,,,,,,,,,,,,,,,,17_YYF,17,25,F,2022-12-09_09h48.52.719,dynamic target,2022.1.3,120.13149580837877,
1,5,2,2,mix,0,23,23,23,,,,,,,None,260.6366826307708,None,259.6458589170047,None,260.13708304295324,None,1,[0.009452742222038069],[0.5175281755796277],260.6366826307708,None,[0 3 2 2 2 1 0 3],space,0,6.592098760738281,0.0024687006603016926,None,260.65331296581826,None,1,267.2477119418404,None,None,267.74726999711675,None,,,,,,,,,,,,,,,,,,,,,,,,,,,,,,,,,,,,,,,,,,,,,,17_YYF,17,25,F,2022-12-09_09h48.52.719,dynamic target,2022.1.3,120.13149580837877,
1,6,4,2,mix,0,24,24,24,,,,,,,None,268.77973192749187,None,267.8139178592173,268.8130246690466,268.2801749947166,None,2,"[0.008735303654248128, 0.741924165749424]","[0.49980131730353605, 1.249538090792612]",268.77973192749187,None,[3 2 3 1 1 2 1 2],space,0,8.548443730345753,0.0031361077503788692,None,269.52910853848107,None,1,278.0801549179823,None,None,278.5797216325527,None,,,,,,,,,,,,,,,,,,,,,,,,,,,,,,,,,,,,,,,,,,,,,,17_YYF,17,25,F,2022-12-09_09h48.52.719,dynamic target,2022.1.3,120.13149580837877,
0,7,4,2,mix,0,25,25,25,,,,,,,None,279.6121851665007,None,278.6380216142402,None,279.1126105944222,None,1,[0.008679499313075212],[0.5173152210827539],279.6121851665007,None,[3 2 0 3 2 1 1 1],space,0,4.43161862531997,0.0024885849657039216,None,279.6288459694356,None,1,284.058382244983,None,None,284.5579707681468,None,,,,,,,,,,,,,,,,,,,,,,,,,,,,,,,,,,,,,,,,,,,,,,17_YYF,17,25,F,2022-12-09_09h48.52.719,dynamic target,2022.1.3,120.13149580837877,
0,8,1,2,mix,0,26,26,26,,,,,,,None,285.58210823027457,None,284.5912598214841,None,285.08251120817386,None,1,[0.008642937848435395],[0.5177331122113173],285.58210823027457,None,[1 1 3 2 3 0 0 0],space,0,1.725183454730086,0.002196093246766395,None,285.5987728817845,None,1,287.3222857842934,None,None,287.8218688553088,None,,,,,,,,,,,,,,,,,,,,,,,,,,,,,,,,,,,,,,,,,,,,,,17_YYF,17,25,F,2022-12-09_09h48.52.719,dynamic target,2022.1.3,120.13149580837877,
0,1,1,2,mix,0,27,27,27,,,,,,,None,288.8543067320884,None,287.8801508769784,288.8792997004207,288.35472478357406,None,2,"[0.009502132270881702, 0.45087502168826177]","[0.14179915119666475, 0.9586881105001339]",288.8543067320884,None,[0 3 3 3 3 1 2 0],space,0,3.515400825467168,0.002398143446953327,None,289.3122596043604,None,1,292.8259475432783,None,None,293.3254969392601,None,,,,,,,,,,,,,,,,,,,,,,,,,,,,,,,,,,,,,,,,,,,,,,17_YYF,17,25,F,2022-12-09_09h48.52.719,dynamic target,2022.1.3,120.13149580837877,
0,8,3,1,mix,0,28,28,28,,,,,,,None,294.35796303892494,None,293.3754718112714,294.37461999328434,293.8583868632736,None,1,[0.6334344332672117],[1.133651075981561],294.35796303892494,None,[3 1 2 3 2 2 3 1],space,0,5.56504327679113,0.002381787002832425,None,294.9907554015558,None,1,300.5609946257855,None,None,301.0605879596683,None,,,,,,,,,,,,,,,,,,,,,,,,,,,,,,,,,,,,,,,,,,,,,,17_YYF,17,25,F,2022-12-09_09h48.52.719,dynamic target,2022.1.3,120.13149580837877,
1,1,3,2,mix,0,29,29,29,,,,,,,None,302.0930418721782,None,301.1105525688117,None,301.59345254722757,None,1,[0.008542874892100372],[0.5171160573140696],302.0930418721782,None,[0 0 3 2 2 3 1 0],space,0,8.333814141280527,0.0027057087522734946,None,302.1096946572475,None,1,310.44425996227756,None,None,310.9438337325696,None,,,,,,,,,,,,,,,,,,,,,,,,,,,,,,,,,,,,,,,,,,,,,,17_YYF,17,25,F,2022-12-09_09h48.52.719,dynamic target,2022.1.3,120.13149580837877,
1,2,1,2,mix,0,30,30,30,,,,,,,None,311.97627770292684,None,311.00217572787005,312.0012620119646,311.47671531800324,None,2,"[0.008684630746756739, 0.6085351135984638]","[0.1500835301180814, 1.108571514706]",311.97627770292684,None,[0 1 3 1 0 0 1 2],space,0,4.499320515964428,0.002516807850497571,None,312.5841210351259,None,1,317.08027133738324,None,None,317.57985344625513,None,,,,,,,,,,,,,,,,,,,,,,,,,,,,,,,,,,,,,,,,,,,,,,17_YYF,17,25,F,2022-12-09_09h48.52.719,dynamic target,2022.1.3,120.13149580837877,
1,3,1,2,mix,0,31,31,31,,,,,,,None,318.61230992448145,None,317.63816208723665,318.637289102086,318.11273342811546,None,2,"[0.008725040786885074, 0.5506579941161363]","[0.2838555155053655, 1.0581009782754336]",318.61230992448145,None,[2 0 2 2 1 1 0 2],space,0,2.98503797217154,0.0029225118237263814,None,319.17015801929256,None,1,322.1592890013817,None,None,322.6588743173993,None,,,,,,,,,,,,,,,,,,,,,,,,,,,,,,,,,,,,,,,,,,,,,,17_YYF,17,25,F,2022-12-09_09h48.52.719,dynamic target,2022.1.3,120.13149580837877,
1,2,2,1,mix,0,32,32,32,,,,,,,None,323.69131572203923,None,322.708807817226,None,323.1917414706754,None,1,[0.00865288000113651],[0.517603222796879],323.69131572203923,None,[0 3 2 3 2 1 1 0],space,0,3.886254987877237,0.0024446470642942586,None,323.7079559992394,None,1,327.5962998514774,None,None,328.0959149939531,None,,,,,,,,,,,,,,,,,,,,,,,,,,,,,,,,,,,,,,,,,,,,,,17_YYF,17,25,F,2022-12-09_09h48.52.719,dynamic target,2022.1.3,120.13149580837877,
1,3,3,2,mix,0,33,33,33,,,,,,,None,329.12833298642727,None,328.14585170092596,None,328.6287795815124,None,1,[0.008200993124773959],[0.516649738281103],329.12833298642727,None,[1 0 2 2 1 0 2 1],space,0,2.514035543400041,0.0028423331727935874,None,329.14500437294373,None,1,331.6595309805498,None,None,332.159097374406,None,,,,,,,,,,,,,,,,,,,,,,,,,,,,,,,,,,,,,,,,,,,,,,17_YYF,17,25,F,2022-12-09_09h48.52.719,dynamic target,2022.1.3,120.13149580837877,
0,2,1,1,mix,0,34,34,34,,,,,,,None,333.1915577012078,None,332.2174072982457,333.21653431309505,332.69198986413585,None,2,"[0.008634599269043974, 0.4498064006297682]","[0.23338690336277068, 0.9501320863096225]",333.1915577012078,None,[1 1 2 0 2 0 2 2],space,0,3.3610505082642703,0.002590892923763022,None,333.64117904951127,None,1,337.0049864706548,None,None,337.5045547887985,None,,,,,,,,,,,,,,,,,,,,,,,,,,,,,,,,,,,,,,,,,,,,,,17_YYF,17,25,F,2022-12-09_09h48.52.719,dynamic target,2022.1.3,120.13149580837877,
1,3,4,2,mix,0,35,35,35,,,,,,,None,338.53700581487647,None,337.56283392403657,338.56197280532615,338.02910549169246,None,2,"[0.00906179112052996, 0.766862612598743]","[0.5164781559678886, 1.2751378511543408]",338.53700581487647,None,[3 2 3 3 1 0 0 3],space,0,2.7868847751442445,0.002289100481903006,None,339.3030406630842,None,1,342.0923074357361,None,None,342.5918869788911,None,,,,,,,,,,,,,,,,,,,,,,,,,,,,,,,,,,,,,,,,,,,,,,17_YYF,17,25,F,2022-12-09_09h48.52.719,dynamic target,2022.1.3,120.13149580837877,
0,6,3,0,mix,0,36,36,36,,,,,,,None,343.6243396085424,None,342.65023538848345,343.6493207104345,343.124773695758,None,2,"[0.008725361501547013, 0.39991379191451415]","[0.21673828758275704, 0.9001362074923236]",343.6243396085424,None,[0 2 0 1 3 3 2 1],space,0,4.433838932519393,0.0027041051789638004,None,344.023978227327,None,1,348.46190664190317,None,None,348.96144994430824,None,,,,,,,,,,,,,,,,,,,,,,,,,,,,,,,,,,,,,,,,,,,,,,17_YYF,17,25,F,2022-12-09_09h48.52.719,dynamic target,2022.1.3,120.13149580837877,
1,6,3,0,mix,0,37,37,37,,,,,,,None,349.9939519640084,None,349.01975569885826,350.0189096537342,349.49434211332346,None,2,"[0.009387957872149855, 0.7010753881368146]","[0.4831546258110393, 1.208214976281397]",349.9939519640084,None,[0 1 1 3 3 0 1 2],space,0,5.259278463865485,0.002639000114868395,None,350.7016504294211,None,1,355.96381537486604,None,None,356.4634321209146,None,,,,,,,,,,,,,,,,,,,,,,,,,,,,,,,,,,,,,,,,,,,,,,17_YYF,17,25,F,2022-12-09_09h48.52.719,dynamic target,2022.1.3,120.13149580837877,
0,7,1,2,mix,0,38,38,38,,,,,,,None,357.4958513962474,None,356.52169938971247,357.5208405160042,356.9962947841864,None,1,[0.17504121984438825],[0.6842490964668286],357.4958513962474,None,[1 2 3 0 2 1 2 3],space,0,7.289233207828147,0.002120404601100745,None,357.6790394084487,None,1,364.9728213616454,None,None,365.4723890383598,None,,,,,,,,,,,,,,,,,,,,,,,,,,,,,,,,,,,,,,,,,,,,,,17_YYF,17,25,F,2022-12-09_09h48.52.719,dynamic target,2022.1.3,120.13149580837877,
1,8,4,2,mix,0,39,39,39,,,,,,,None,366.49653868764244,None,365.5140429699841,366.5131683812606,365.9969618705618,None,1,[0.34245809142112194],[0.8502721423769799],366.49653868764244,None,[3 0 2 2 0 3 0 0],space,0,7.2742616087093666,0.00255561431777096,None,366.84622087550633,None,1,374.12339398153426,None,None,374.6229469053769,None,,,,,,,,,,,,,,,,,,,,,,,,,,,,,,,,,,,,,,,,,,,,,,17_YYF,17,25,F,2022-12-09_09h48.52.719,dynamic target,2022.1.3,120.13149580837877,
0,1,1,2,mix,0,40,40,40,,,,,,,None,375.647057106763,None,374.656268992318,375.65539729002603,375.14748221396985,None,2,"[0.44989331428723744, 0.7335419688733964]","[0.5919291528612121, 1.241761082373614]",375.647057106763,None,[0 0 3 3 2 1 1 3],space,0,5.411467485355388,0.0023756934247103345,None,376.38808551662487,None,1,381.8001502227203,None,None,382.2997313694482,None,,,,,,,,,,,,,,,,,,,,,,,,,,,,,,,,,,,,,,,,,,,,,,17_YYF,17,25,F,2022-12-09_09h48.52.719,dynamic target,2022.1.3,120.13149580837877,
1,8,3,1,mix,0,41,41,41,,,,,,,None,383.33219394125217,None,382.34137151034474,383.3405248237914,382.824296183785,None,1,[0.9001589782292285],[1.4077517361083665],383.33219394125217,None,[2 0 2 3 2 1 3 2],space,0,6.400485896619102,0.003020009063220641,None,384.23140745283035,None,1,390.6342939484043,None,None,391.13386836012523,None,,,,,,,,,,,,,,,,,,,,,,,,,,,,,,,,,,,,,,,,,,,,,,17_YYF,17,25,F,2022-12-09_09h48.52.719,dynamic target,2022.1.3,120.13149580837877,
0,1,4,2,mix,0,42,42,42,,,,,,,None,392.15800133224866,None,391.1671923713543,392.16635434409545,391.65845915234513,None,2,"[0.008717343636362784, 0.7000458942598016]","[0.46655475865100016, 1.2086011166643402]",392.15800133224866,None,[0 0 1 0 1 3 2 2],space,0,8.37345478698171,0.0023356041001534322,None,392.8657434148472,None,1,401.24194068255156,None,None,401.74152535713984,None,,,,,,,,,,,,,,,,,,,,,,,,,,,,,,,,,,,,,,,,,,,,,,17_YYF,17,25,F,2022-12-09_09h48.52.719,dynamic target,2022.1.3,120.13149580837877,
0,2,4,2,mix,0,43,43,43,,,,,,,None,402.77397670393293,None,401.7914550083915,None,402.2743848132659,None,1,[0.008670198589697975],[0.5176619135695546],402.77397670393293,None,[3 2 1 1 3 2 0 0],space,0,2.7843318869008726,0.002225278276455356,None,402.79063077186083,None,1,405.5799183909621,None,None,406.07948799196447,None,,,,,,,,,,,,,,,,,,,,,,,,,,,,,,,,,,,,,,,,,,,,,,17_YYF,17,25,F,2022-12-09_09h48.52.719,dynamic target,2022.1.3,120.13149580837877,
1,3,1,2,mix,0,44,44,44,,,,,,,None,407.1036094183619,None,406.1128036646137,None,406.604056975591,None,1,[0.008691045038631273],[0.5176680071467672],407.1036094183619,None,[3 2 2 3 2 3 1 1],space,0,4.165795609108045,0.0022624811704190506,None,407.1202554684246,None,1,411.29170596756876,None,None,411.79129032144283,None,,,,,,,,,,,,,,,,,,,,,,,,,,,,,,,,,,,,,,,,,,,,,,17_YYF,17,25,F,2022-12-09_09h48.52.719,dynamic target,2022.1.3,120.13149580837877,
0,4,4,2,mix,0,45,45,45,,,,,,,None,412.823744554667,None,411.8412462712922,None,412.32419628118623,None,1,[0.008670519303905166],[0.5175470977410441],412.823744554667,None,[1 1 2 2 0 0 2 3],space,0,3.053869098935138,0.002115914595833601,None,412.84040664046006,None,1,415.89612823709285,None,None,416.39569527237836,None,,,,,,,,,,,,,,,,,,,,,,,,,,,,,,,,,,,,,,,,,,,,,,17_YYF,17,25,F,2022-12-09_09h48.52.719,dynamic target,2022.1.3,120.13149580837877,
1,5,4,2,mix,0,46,46,46,,,,,,,None,417.4281584856117,None,416.453986915486,None,416.92858263067455,None,1,[0.008654162859784265],[0.5169855264707621],417.4281584856117,None,[3 2 2 3 1 0 0 2],space,0,4.722185414617343,0.0028516338966255717,None,417.44480421495973,None,1,422.1657972628295,None,None,422.6653700709776,None,,,,,,,,,,,,,,,,,,,,,,,,,,,,,,,,,,,,,,,,,,,,,,17_YYF,17,25,F,2022-12-09_09h48.52.719,dynamic target,2022.1.3,120.13149580837877,
0,4,3,1,mix,0,47,47,47,,,,,,,None,423.69780506132565,None,422.723643112638,423.7227835975009,423.19824395926025,None,3,"[0.008596434231094463, 0.24993000403810584, 0.6087628209670584]","[0.02512702703688774, 0.492846621127228, 1.1164489067964496]",423.69780506132565,None,[3 3 0 0 3 3 1 3],space,0,8.860147215583766,0.0028910817923133436,None,424.31394656317434,None,1,433.17306497645814,None,None,433.67265895177025,None,,,,,,,,,,,,,,,,,,,,,,,,,,,,,,,,,,,,,,,,,,,,,,17_YYF,17,25,F,2022-12-09_09h48.52.719,dynamic target,2022.1.3,120.13149580837877,
1,5,1,2,mix,0,48,48,48,,,,,,,None,434.7051119021362,None,433.7309663098931,434.73009749403263,434.1971958639365,None,3,"[0.00919071839098251, 0.25832053949352485, 0.4081830972500029]","[0.24176172380248317, 0.2666725891963324, 0.9084882571951312]",434.7051119021362,None,[3 1 0 1 2 3 0 2],space,0,2.9174037523084735,0.0026242472431476926,None,435.104758538786,None,1,438.01896225092923,None,None,438.5185273619268,None,,,,,,,,,,,,,,,,,,,,,,,,,,,,,,,,,,,,,,,,,,,,,,17_YYF,17,25,F,2022-12-09_09h48.52.719,dynamic target,2022.1.3,120.13149580837877,
1,6,1,2,mix,0,49,49,49,,,,,,,None,439.5509755015737,None,438.56846920033377,None,439.05140670235824,None,1,[0.00864486213595228],[0.5171298480422593],439.5509755015737,None,[1 2 3 0 3 1 0 2],space,0,4.613671307824916,0.0026252093862240145,None,439.5676305316456,None,1,444.1803756658437,None,None,444.6799468704189,None,,,,,,,,,,,,,,,,,,,,,,,,,,,,,,,,,,,,,,,,,,,,,,17_YYF,17,25,F,2022-12-09_09h48.52.719,dynamic target,2022.1.3,120.13149580837877,
0,7,2,2,mix,0,50,50,50,,,,,,,None,445.7123985379262,None,444.73827892356667,None,445.2128290972814,None,1,[0.008711891488019319],[0.5176449156952003],445.7123985379262,None,[3 3 1 1 2 3 1 1],space,0,2.531245730450337,0.001791992846847279,None,445.72904683299157,None,1,448.2602416199679,None,None,448.7598038445344,None,,,,,,,,,,,,,,,,,,,,,,,,,,,,,,,,,,,,,,,,,,,,,,17_YYF,17,25,F,2022-12-09_09h48.52.719,dynamic target,2022.1.3,120.13149580837877,
0,8,1,2,mix,0,51,51,51,,,,,,,None,449.7839361752285,None,448.7931098957456,None,449.2843660931544,None,1,[0.008662180724513746],[0.5177148314792248],449.7839361752285,None,[2 0 2 0 3 1 0 3],space,0,5.659825987836484,0.002243238293885952,None,449.8005905638711,None,1,455.46244864958317,None,None,455.9620083084328,None,,,,,,,,,,,,,,,,,,,,,,,,,,,,,,,,,,,,,,,,,,,,,,17_YYF,17,25,F,2022-12-09_09h48.52.719,dynamic target,2022.1.3,120.13149580837877,
1,1,4,2,mix,0,52,52,52,,,,,,,None,456.98613646983677,None,455.99530088963047,456.9944760116705,456.48656061489964,None,1,[0.7172644198899434],[1.2248459527581872],456.98613646983677,None,[1 0 3 1 0 1 2 1],space,0,6.261688634110669,0.002723668770158838,None,457.7105194710648,None,1,463.9718393335297,None,None,464.47143427098536,None,,,,,,,,,,,,,,,,,,,,,,,,,,,,,,,,,,,,,,,,,,,,,,17_YYF,17,25,F,2022-12-09_09h48.52.719,dynamic target,2022.1.3,120.13149580837877,
0,1,1,0,mix,0,53,53,53,,,,,,,None,465.4955622720322,None,464.50472524861016,None,464.9959705417223,None,1,[0.00865608714730115],[0.5089920356945186],465.4955622720322,None,[3 3 2 1 0 2 0 3],space,0,2.4190995307740195,0.0017159834860649426,None,465.50388273134695,None,1,467.92681837964074,None,None,468.42640241280014,None,,,,,,,,,,,,,,,,,,,,,,,,,,,,,,,,,,,,,,,,,,,,,,17_YYF,17,25,F,2022-12-09_09h48.52.719,dynamic target,2022.1.3,120.13149580837877,
1,8,4,1,mix,0,54,54,54,,,,,,,None,469.4505215941954,None,468.45968922113525,469.4588396481504,468.95096818928096,None,2,"[0.00866442572669257, 0.7171797512346529]","[0.08359522353339344, 1.2250807158479802]",469.4505215941954,None,[0 2 0 3 1 1 0 0],space,0,4.66043053486419,0.002375693425165082,None,470.1748975397022,None,1,474.8376212341291,None,None,475.3371642158195,None,,,,,,,,,,,,,,,,,,,,,,,,,,,,,,,,,,,,,,,,,,,,,,17_YYF,17,25,F,2022-12-09_09h48.52.719,dynamic target,2022.1.3,120.13149580837877,
0,7,3,1,mix,0,55,55,55,,,,,,,None,476.3696200526165,None,475.3955126254118,None,475.8700541398325,None,1,[0.008642617133773456],[0.5175333070133092],476.3696200526165,None,[2 2 1 0 3 1 2 1],space,0,3.377388030878592,0.002336886957891693,None,476.3862798934074,None,1,479.76671283887936,None,None,480.26631034205184,None,,,,,,,,,,,,,,,,,,,,,,,,,,,,,,,,,,,,,,,,,,,,,,17_YYF,17,25,F,2022-12-09_09h48.52.719,dynamic target,2022.1.3,120.13149580837877,
0,8,2,2,mix,0,56,56,56,,,,,,,None,481.29044876632315,None,480.29960324396416,None,480.79084051921154,None,1,[0.008650955713619624],[0.5176901364543482],481.29044876632315,None,[0 1 0 1 1 2 2 0],space,0,3.8803734027646897,0.0022073182576605177,None,481.3070983442467,None,1,485.1871119553748,None,None,485.6867024028261,None,,,,,,,,,,,,,,,,,,,,,,,,,,,,,,,,,,,,,,,,,,,,,,17_YYF,17,25,F,2022-12-09_09h48.52.719,dynamic target,2022.1.3,120.13149580837877,
0,1,3,2,mix,0,57,57,57,,,,,,,None,486.71081260421215,None,485.7200103783248,486.71913835531814,486.2112486157157,None,1,[0.7419892708135194],[1.2495772179740925],486.71081260421215,None,[1 3 0 3 1 2 3 3],space,0,2.4951509054048984,0.0031306556020354037,None,487.4602100616512,None,1,489.9580585477338,None,None,490.457630714453,None,,,,,,,,,,,,,,,,,,,,,,,,,,,,,,,,,,,,,,,,,,,,,,17_YYF,17,25,F,2022-12-09_09h48.52.719,dynamic target,2022.1.3,120.13149580837877,
0,5,3,0,mix,0,58,58,58,,,,,,,None,491.4900766090973,None,490.5159691818926,None,490.99052737347256,None,1,[0.008658011434818036],[0.517131451615569],491.4900766090973,None,[2 1 2 2 3 0 2 2],space,0,2.5926103005308505,0.0026386793992969615,None,491.50673195988384,None,1,494.1045093435391,None,None,494.60409145241056,None,,,,,,,,,,,,,,,,,,,,,,,,,,,,,,,,,,,,,,,,,,,,,,17_YYF,17,25,F,2022-12-09_09h48.52.719,dynamic target,2022.1.3,120.13149580837877,
0,5,2,0,mix,0,59,59,59,,,,,,,None,495.63655402421455,None,494.66238341623284,None,495.13697848999254,None,1,[0.009002779633647151],[0.5176856464499906],495.63655402421455,None,[2 2 3 2 0 3 0 3],space,0,1.8688154898854918,0.0020639588306039514,None,495.6532010364217,None,1,497.5266111338642,None,space,498.04282886957435,None,28.65175777055765,,,,,,,,,,,,,,,,,,,,,,,,,,,,,,,,,,,,,,,,,,,,,17_YYF,17,25,F,2022-12-09_09h48.52.719,dynamic target,2022.1.3,120.13149580837877,
0,6,3,2,mix,0,60,60,60,,,,,,,None,527.7425344856397,None,526.7600378058378,None,527.2429695349992,None,1,[0.00857494635238254],[0.5169948271941394],527.7425344856397,None,[3 2 2 3 1 3 3 0],space,0,3.3620681357006106,0.0028590103320311755,None,527.7591965714328,None,1,531.1229725625453,None,None,531.6225739142928,None,,,,,,,,,,,,,,,,,,,,,,,,,,,,,,,,,,,,,,,,,,,,,,17_YYF,17,25,F,2022-12-09_09h48.52.719,dynamic target,2022.1.3,120.13149580837877,
0,5,1,1,mix,0,61,61,61,,,,,,,None,532.6550246196566,None,531.6808671609738,None,532.1554519718657,None,1,[0.008643899991966464],[0.5171914252459828],532.6550246196566,None,[1 2 2 0 0 2 0 1],space,0,2.3692498978157346,0.0027217444817324576,None,532.6717043447529,None,1,535.0446418692277,None,None,535.544225581672,None,,,,,,,,,,,,,,,,,,,,,,,,,,,,,,,,,,,,,,,,,,,,,,17_YYF,17,25,F,2022-12-09_09h48.52.719,dynamic target,2022.1.3,120.13149580837877,
1,6,4,2,mix,0,62,62,62,,,,,,,None,536.57668911562,None,535.6025646905409,536.6016715003702,536.077112619254,None,2,"[0.19962848420345836, 0.691651830943556]","[0.42444172407158476, 1.1994370175848417]",536.57668911562,None,[2 3 0 2 2 3 2 1],space,0,4.245358487932208,0.0027162923338437395,None,537.2760958256749,None,1,541.5224684633313,None,None,542.0220489686303,None,,,,,,,,,,,,,,,,,,,,,,,,,,,,,,,,,,,,,,,,,,,,,,17_YYF,17,25,F,2022-12-09_09h48.52.719,dynamic target,2022.1.3,120.13149580837877,
0,7,2,2,mix,0,63,63,63,,,,,,,None,543.0545041639984,None,542.0803877567841,543.0794820587444,542.5549350440679,None,2,"[0.008630750693100708, 0.23329549970048902]","[0.025219392842245725, 0.733436133054056]",543.0545041639984,None,[0 2 2 2 3 0 3 0],space,0,3.4173715204910877,0.0030777376919104427,None,543.2876418721139,None,1,546.7097093459765,None,None,547.209313584156,None,,,,,,,,,,,,,,,,,,,,,,,,,,,,,,,,,,,,,,,,,,,,,,17_YYF,17,25,F,2022-12-09_09h48.52.719,dynamic target,2022.1.3,120.13149580837877,
1,8,2,2,mix,0,64,64,64,,,,,,,None,548.2417524230791,None,547.2592637611424,None,547.7421845860072,None,1,[0.008628184976259945],[0.5172943746333658],548.2417524230791,None,[0 1 1 2 1 3 2 0],space,0,2.462287279989141,0.002594741498796793,None,548.2583878895603,None,0,550.7313123609501,None,None,551.230858229072,None,,,,,,,,,,,,,,,,,,,,,,,,,,,,,,,,,,,,,,,,,,,,,,17_YYF,17,25,F,2022-12-09_09h48.52.719,dynamic target,2022.1.3,120.13149580837877,
0,1,2,2,mix,0,65,65,65,,,,,,,None,552.2633262530239,None,551.280828611078,552.2799790380936,551.7637433423661,None,3,"[0.008687196463597502, 0.32500319912787745, 0.5173681389924241]","[0.3166594880044613, 0.3336054062219773, 1.025227731422092]",552.2633262530239,None,[0 3 2 2 2 1 0 0],space,0,5.723721958282113,0.002325341232790379,None,552.7878803234216,None,1,558.5163219679562,None,None,559.0159040768281,None,,,,,,,,,,,,,,,,,,,,,,,,,,,,,,,,,,,,,,,,,,,,,,17_YYF,17,25,F,2022-12-09_09h48.52.719,dynamic target,2022.1.3,120.13149580837877,
1,8,3,1,mix,0,66,66,66,,,,,,,None,560.04835606505,None,559.0741870606412,None,559.5487766822525,None,1,[0.008731775793421548],[0.5177097000450885],560.04835606505,None,[3 1 2 3 3 1 0 2],space,0,4.574167286544707,0.0021300260386851733,None,560.0650165472703,None,1,564.6444801649245,None,None,565.144030843765,None,,,,,,,,,,,,,,,,,,,,,,,,,,,,,,,,,,,,,,,,,,,,,,17_YYF,17,25,F,2022-12-09_09h48.52.719,dynamic target,2022.1.3,120.13149580837877,
0,1,3,2,mix,0,67,67,67,,,,,,,None,566.1764664755424,None,565.1939864728997,None,565.6768880548884,None,1,[0.009511112280051748],[0.5175798106311049],566.1764664755424,None,[3 1 2 1 2 1 3 1],space,0,3.662447829719895,0.002378259141551098,None,566.1931231091871,None,1,569.8566752094348,None,None,570.3562566768774,None,,,,,,,,,,,,,,,,,,,,,,,,,,,,,,,,,,,,,,,,,,,,,,17_YYF,17,25,F,2022-12-09_09h48.52.719,dynamic target,2022.1.3,120.13149580837877,
0,3,1,0,mix,0,68,68,68,,,,,,,None,571.3887208522542,None,570.4145303599671,None,570.88913056516,None,1,[0.008644541421290342],[0.5175307412964685],571.3887208522542,None,[0 1 3 0 1 3 1 3],space,0,2.6425599964454705,0.0023724862785456935,None,571.4053441315805,None,1,574.0530792290151,None,None,574.5526969372077,None,,,,,,,,,,,,,,,,,,,,,,,,,,,,,,,,,,,,,,,,,,,,,,17_YYF,17,25,F,2022-12-09_09h48.52.719,dynamic target,2022.1.3,120.13149580837877,
0,4,4,2,mix,0,69,69,69,,,,,,,None,575.5851312861269,None,574.6110142374837,None,575.0855640904842,None,1,[0.00865704929083222],[0.5175381177323288],575.5851312861269,None,[1 0 2 3 3 3 2 3],space,0,2.445102108678384,0.002416744894162548,None,575.6017702804684,None,1,578.0497104428205,None,None,578.5492800438228,None,,,,,,,,,,,,,,,,,,,,,,,,,,,,,,,,,,,,,,,,,,,,,,17_YYF,17,25,F,2022-12-09_09h48.52.719,dynamic target,2022.1.3,120.13149580837877,
0,5,3,2,mix,0,70,70,70,,,,,,,None,579.5817265798964,None,578.5992340693842,None,579.0821526492473,None,1,[0.009482568680141412],[0.5176295213941557],579.5817265798964,None,[3 2 0 1 2 0 2 3],space,0,2.7202675412886492,0.0022474075840364094,None,579.5983950799814,None,1,582.3210526366429,None,None,582.8206350662294,None,,,,,,,,,,,,,,,,,,,,,,,,,,,,,,,,,,,,,,,,,,,,,,17_YYF,17,25,F,2022-12-09_09h48.52.719,dynamic target,2022.1.3,120.13149580837877,
1,6,4,2,mix,0,71,71,71,,,,,,,None,583.8530812815884,None,582.8789735336691,583.8780678356288,583.3451889762696,None,2,"[0.00968910888514074, 0.7087975543590801]","[0.05019151472561134, 1.2165141080754438]",583.8530812815884,None,[1 3 3 0 3 3 0 2],space,0,4.654388592449777,0.002679410154996731,None,584.5608358720569,None,1,589.2152168175044,None,None,589.714769741347,None,,,,,,,,,,,,,,,,,,,,,,,,,,,,,,,,,,,,,,,,,,,,,,17_YYF,17,25,F,2022-12-09_09h48.52.719,dynamic target,2022.1.3,120.13149580837877,
0,7,2,2,mix,0,72,72,72,,,,,,,None,590.7472105045581,None,589.7647523105084,None,590.2476497232074,None,1,[0.008698100760284433],[0.5172228552773959],590.7472105045581,None,[3 2 3 3 2 0 0 1],space,0,4.546421624771028,0.002727838059399801,None,590.7638562339062,None,1,595.3100053014127,None,None,595.8095553388239,None,,,,,,,,,,,,,,,,,,,,,,,,,,,,,,,,,,,,,,,,,,,,,,17_YYF,17,25,F,2022-12-09_09h48.52.719,dynamic target,2022.1.3,120.13149580837877,
0,8,4,2,mix,0,73,73,73,,,,,,,None,596.8420129395518,None,595.859515457963,None,596.334110211008,None,1,[0.00953420373116387],[0.5164877774059278],596.8420129395518,None,[0 0 1 1 2 1 1 1],space,0,3.1312337998670046,0.002107576016442181,None,596.8503734881915,None,1,599.9810108090446,None,None,600.48059388006,None,,,,,,,,,,,,,,,,,,,,,,,,,,,,,,,,,,,,,,,,,,,,,,17_YYF,17,25,F,2022-12-09_09h48.52.719,dynamic target,2022.1.3,120.13149580837877,
0,2,2,0,mix,0,74,74,74,,,,,,,None,601.5130493961428,None,600.5305530370551,601.5297108405066,601.0134921426529,None,2,"[0.20835544927786032, 0.7251434155527932]","[0.4916724849640559, 1.233349379754145]",601.5130493961428,None,[3 2 0 1 0 2 0 2],space,0,3.6559046103802757,0.002630020106153097,None,602.2457578277617,None,1,605.9009665376007,None,None,606.4005640407731,None,,,,,,,,,,,,,,,,,,,,,,,,,,,,,,,,,,,,,,,,,,,,,,17_YYF,17,25,F,2022-12-09_09h48.52.719,dynamic target,2022.1.3,120.13149580837877,
0,3,4,2,mix,0,75,75,75,,,,,,,None,607.4329829953913,None,606.4421669787757,None,606.9334302319057,None,1,[0.008621449969723471],[0.5174540905063623],607.4329829953913,None,[0 0 3 2 2 1 2 0],space,0,3.0281776141964656,0.0024318184805451892,None,607.4496569476246,None,1,610.4804311173989,None,None,610.9799930212503,None,,,,,,,,,,,,,,,,,,,,,,,,,,,,,,,,,,,,,,,,,,,,,,17_YYF,17,25,F,2022-12-09_09h48.52.719,dynamic target,2022.1.3,120.13149580837877,
0,4,3,2,mix,0,76,76,76,,,,,,,None,612.012424483738,None,611.0299435189513,None,611.5128640231019,None,1,[0.0091079740236637],[0.5176394635473116],612.012424483738,None,[0 3 0 1 2 3 3 0],space,0,3.552556574420578,0.00231732336760615,None,612.0290926631083,None,1,615.584402301833,None,None,616.0839799207001,None,,,,,,,,,,,,,,,,,,,,,,,,,,,,,,,,,,,,,,,,,,,,,,17_YYF,17,25,F,2022-12-09_09h48.52.719,dynamic target,2022.1.3,120.13149580837877,
0,5,2,2,mix,0,77,77,77,,,,,,,None,617.1080962156639,None,616.1172660876059,None,616.6085165121517,None,1,[0.008619846396868525],[0.5176077128012366],617.1080962156639,None,[0 1 1 1 3 1 2 3],space,0,3.3999025167554464,0.0022762718981539365,None,617.1247730543291,None,1,620.5301826116884,None,None,621.0297563819804,None,,,,,,,,,,,,,,,,,,,,,,,,,,,,,,,,,,,,,,,,,,,,,,17_YYF,17,25,F,2022-12-09_09h48.52.719,dynamic target,2022.1.3,120.13149580837877,
1,6,1,2,mix,0,78,78,78,,,,,,,None,622.0622128602067,None,621.0797161804048,None,621.5626370052696,None,1,[0.008665387870678387],[0.5173970033069963],622.0622128602067,None,[2 3 2 2 2 0 2 3],space,0,4.302444725202349,0.002506544983589265,None,622.0788550616944,None,1,626.383532010685,None,None,626.8831077052646,None,,,,,,,,,,,,,,,,,,,,,,,,,,,,,,,,,,,,,,,,,,,,,,17_YYF,17,25,F,2022-12-09_09h48.52.719,dynamic target,2022.1.3,120.13149580837877,
1,7,4,2,mix,0,79,79,79,,,,,,,None,627.9072393945294,None,626.916416001478,627.9155811813653,627.4076689917406,None,2,"[0.008643258563097334, 0.4748494004402346]","[0.2591640189007194, 0.9750140873888995]",627.9072393945294,None,[1 0 1 2 1 1 3 1],space,0,3.855257600739151,0.002815713861309632,None,628.3818197154174,None,1,632.2368708261001,None,None,632.7364628771243,None,,,,,,,,,,,,,,,,,,,,,,,,,,,,,,,,,,,,,,,,,,,,,,17_YYF,17,25,F,2022-12-09_09h48.52.719,dynamic target,2022.1.3,120.13149580837877,
0,8,3,2,mix,0,80,80,80,,,,,,,None,633.7605879917396,None,632.7697916990724,None,633.2610065242975,None,1,[0.00863748570009193],[0.5089509842250663],633.7605879917396,None,[1 1 0 1 3 2 2 1],space,0,6.899038671971084,0.00234682911013806,None,633.7689219210679,None,1,640.6713522001182,None,None,641.1709214804059,None,,,,,,,,,,,,,,,,,,,,,,,,,,,,,,,,,,,,,,,,,,,,,,17_YYF,17,25,F,2022-12-09_09h48.52.719,dynamic target,2022.1.3,120.13149580837877,
1,1,3,2,mix,0,81,81,81,,,,,,,None,642.2034109922365,None,641.2292750214319,642.2283731719672,641.7038165358526,None,2,"[0.16689891749183516, 0.7250837626365865]","[0.6340328867167955, 1.2335578442462065]",642.2034109922365,None,[3 0 3 3 2 3 3 2],space,0,4.019456742699731,0.00240776488544725,None,642.9360815795326,None,1,646.9576752937828,None,None,647.4572487433602,None,,,,,,,,,,,,,,,,,,,,,,,,,,,,,,,,,,,,,,,,,,,,,,17_YYF,17,25,F,2022-12-09_09h48.52.719,dynamic target,2022.1.3,120.13149580837877,
1,2,2,2,mix,0,82,82,82,,,,,,,None,648.4813621518924,None,647.4905429281307,None,647.9818071434047,None,1,[0.0086724435918768],[0.5169329292757538],648.4813621518924,None,[0 0 1 1 2 3 2 0],space,0,3.7540387890317106,0.0030087840518717712,None,648.4980264826877,None,1,652.2531628072406,None,None,652.7527365775327,None,,,,,,,,,,,,,,,,,,,,,,,,,,,,,,,,,,,,,,,,,,,,,,17_YYF,17,25,F,2022-12-09_09h48.52.719,dynamic target,2022.1.3,120.13149580837877,
1,3,2,2,mix,0,83,83,83,,,,,,,None,653.7851773407438,None,652.8193780253409,None,653.2856037308088,None,1,[0.008639730702270754],[0.5177331122113173],653.7851773407438,None,[2 1 2 3 3 2 0 3],space,0,5.297024648404204,0.0021627389287459664,None,653.8018461615434,None,1,659.0973282228533,None,None,659.5969093695812,None,,,,,,,,,,,,,,,,,,,,,,,,,,,,,,,,,,,,,,,,,,,,,,17_YYF,17,25,F,2022-12-09_09h48.52.719,dynamic target,2022.1.3,120.13149580837877,
1,4,2,2,mix,0,84,84,84,,,,,,,None,660.6293392284956,None,659.6551949191112,None,660.1297832578639,None,1,[0.007791119861849438],[0.5164890602645755],660.6293392284956,None,[0 3 0 1 2 1 3 3],space,0,6.901376040000741,0.0023907670110929757,None,660.64604878005,None,1,667.5484476290694,None,None,668.0480563572532,None,,,,,,,,,,,,,,,,,,,,,,,,,,,,,,,,,,,,,,,,,,,,,,17_YYF,17,25,F,2022-12-09_09h48.52.719,dynamic target,2022.1.3,120.13149580837877,
0,5,1,2,mix,0,85,85,85,,,,,,,None,669.0804842918801,None,668.1063832789669,669.1054762980684,668.5809203033832,None,2,"[0.008655445717977273, 0.27603585204406045]","[0.192115103188371, 0.7837152028664605]",669.0804842918801,None,[0 0 2 3 3 1 2 1],space,0,12.054546448177916,0.002464531370151235,None,669.3635813173482,None,1,681.419986356801,None,None,681.9195444120774,None,,,,,,,,,,,,,,,,,,,,,,,,,,,,,,,,,,,,,,,,,,,,,,17_YYF,17,25,F,2022-12-09_09h48.52.719,dynamic target,2022.1.3,120.13149580837877,
1,6,4,2,mix,0,86,86,86,,,,,,,None,682.9436754599128,None,681.9612637694809,None,682.4441156407061,None,1,[0.008651276428281562],[0.5172315145714492],682.9436754599128,None,[1 3 2 0 2 2 0 1],space,0,5.193461733660115,0.002464210655489296,None,682.9603340178455,None,1,688.1559519659327,None,None,688.6554843640406,None,,,,,,,,,,,,,,,,,,,,,,,,,,,,,,,,,,,,,,,,,,,,,,17_YYF,17,25,F,2022-12-09_09h48.52.719,dynamic target,2022.1.3,120.13149580837877,
1,7,2,2,mix,0,87,87,87,,,,,,,None,689.6879328244022,None,688.7138308493454,689.7129148884378,689.1883694773346,None,2,"[0.008598999947935226, 0.4830750885894304]","[0.12504598245641318, 0.9836381030759185]",689.6879328244022,None,[3 3 0 0 3 0 3 3],space,0,3.007176901247931,0.002315399079634517,None,690.1708574978425,None,1,693.1766252292709,None,None,693.676214393864,None,,,,,,,,,,,,,,,,,,,,,,,,,,,,,,,,,,,,,,,,,,,,,,17_YYF,17,25,F,2022-12-09_09h48.52.719,dynamic target,2022.1.3,120.13149580837877,
1,8,4,2,mix,0,88,88,88,,,,,,,None,694.7086743999512,None,693.7345130926929,694.7336542189846,694.2090844335717,None,3,"[0.008642617133773456, 0.2667174892408184, 0.7002986173674799]","[0.05023160405107774, 0.4998696295137961, 1.2084523050880307]",694.7086743999512,None,[2 3 0 2 0 3 1 2],space,0,5.553373113801172,0.0024282906201733567,None,695.4163850525188,None,1,700.9700022802808,None,None,701.4695779748608,None,,,,,,,,,,,,,,,,,,,,,,,,,,,,,,,,,,,,,,,,,,,,,,17_YYF,17,25,F,2022-12-09_09h48.52.719,dynamic target,2022.1.3,120.13149580837877,
0,1,3,2,mix,0,89,89,89,,,,,,,None,702.4937006841164,None,701.5028631796226,702.5020245109345,701.9941257913233,None,1,[0.7754317860885749],[1.2828875988325308],702.4937006841164,None,[2 2 1 3 0 0 3 1],space,0,3.9817054267273306,0.003085755557549419,None,703.2763697159467,None,1,707.256314148934,None,None,707.7559138971092,None,,,,,,,,,,,,,,,,,,,,,,,,,,,,,,,,,,,,,,,,,,,,,,17_YYF,17,25,F,2022-12-09_09h48.52.719,dynamic target,2022.1.3,120.13149580837877,
0,2,2,2,mix,0,90,90,90,,,,,,,None,708.7800087041946,None,707.7975014408107,None,708.280441508552,None,1,[0.008662822153837624],[0.5172440224409911],708.7800087041946,None,[0 2 3 1 0 0 1 3],space,0,3.4522934922310924,0.002603080078642961,None,708.7966666206976,None,1,712.2520589075757,None,None,712.7516310742944,None,,,,,,,,,,,,,,,,,,,,,,,,,,,,,,,,,,,,,,,,,,,,,,17_YYF,17,25,F,2022-12-09_09h48.52.719,dynamic target,2022.1.3,120.13149580837877,
0,3,3,2,mix,0,91,91,91,,,,,,,None,713.7840997396761,None,712.8099541474335,None,713.2845197154493,None,1,[0.008951786011493823],[0.5176638378570715],713.7840997396761,None,[1 0 1 0 1 3 3 2],space,0,3.3275996544098234,0.002266650460114761,None,713.800769201905,None,1,717.1312376985907,None,None,717.630806337449,None,,,,,,,,,,,,,,,,,,,,,,,,,,,,,,,,,,,,,,,,,,,,,,17_YYF,17,25,F,2022-12-09_09h48.52.719,dynamic target,2022.1.3,120.13149580837877,
1,4,3,2,mix,0,92,92,92,,,,,,,None,718.663265060678,None,717.6807735123093,None,718.1637145421946,None,1,[0.008640372131594631],[0.5171122087390359],718.663265060678,None,[1 2 3 0 0 1 3 2],space,0,5.648777049033015,0.0026800515843206085,None,718.6799120728847,None,1,724.3334129774598,None,None,724.8330104806328,None,,,,,,,,,,,,,,,,,,,,,,,,,,,,,,,,,,,,,,,,,,,,,,17_YYF,17,25,F,2022-12-09_09h48.52.719,dynamic target,2022.1.3,120.13149580837877,
1,5,1,2,mix,0,93,93,93,,,,,,,None,725.8654637517134,None,724.8829657890528,None,725.3658846896301,None,1,[0.008717022921700845],[0.5174544112210242],725.8654637517134,None,[3 1 3 0 1 3 1 1],space,0,4.206093719746605,0.002217260411271127,None,725.8821152539244,None,1,730.0868511181875,None,None,730.5864271334817,None,,,,,,,,,,,,,,,,,,,,,,,,,,,,,,,,,,,,,,,,,,,,,,17_YYF,17,25,F,2022-12-09_09h48.52.719,dynamic target,2022.1.3,120.13149580837877,
0,6,2,2,mix,0,94,94,94,,,,,,,None,731.6188932331465,None,730.6363917426256,None,731.1193417525196,None,1,[0.008643899991966464],[0.5174900105416782],731.6188932331465,None,[3 3 3 1 0 2 3 1],space,0,3.5085689629841,0.002450099212637724,None,731.6355386417804,None,0,735.1575247503479,None,None,735.6571148770845,None,,,,,,,,,,,,,,,,,,,,,,,,,,,,,,,,,,,,,,,,,,,,,,17_YYF,17,25,F,2022-12-09_09h48.52.719,dynamic target,2022.1.3,120.13149580837877,
1,7,2,2,mix,0,95,95,95,,,,,,,None,736.6895659031629,None,735.7070807690866,736.7062228575223,736.1899900482258,None,2,"[0.025233183570435358, 0.6249941870478324]","[0.49181937225284855, 1.1254362921290522]",736.6895659031629,None,[0 0 2 0 2 1 3 3],space,0,6.725545220802815,0.0023468291105928074,None,737.3140341182611,None,1,744.049964769501,None,None,744.5495491233751,None,,,,,,,,,,,,,,,,,,,,,,,,,,,,,,,,,,,,,,,,,,,,,,17_YYF,17,25,F,2022-12-09_09h48.52.719,dynamic target,2022.1.3,120.13149580837877,
0,8,4,2,mix,0,96,96,96,,,,,,,None,745.5820020737406,None,744.6078875908147,None,745.0824271809479,None,1,[0.008657690720156097],[0.5175948842170328],745.5820020737406,None,[1 2 0 3 0 3 3 2],space,0,5.416063646337989,0.0023327176681959827,None,745.5986513309499,None,1,751.0190648796024,None,None,751.518597598425,None,,,,,,,,,,,,,,,,,,,,,,,,,,,,,,,,,,,,,,,,,,,,,,17_YYF,17,25,F,2022-12-09_09h48.52.719,dynamic target,2022.1.3,120.13149580837877,
1,1,3,2,mix,0,97,97,97,,,,,,,None,752.542732494836,None,751.5602759043591,752.5593981084894,752.0431839006401,None,2,"[0.009362300703742221, 0.3083023068679722]","[0.06689497270235734, 0.8086501218554076]",752.542732494836,None,[2 0 3 1 1 3 2 3],space,0,5.203721393824253,0.00250173426411493,None,752.8508394865103,None,1,758.0547081384861,None,None,758.5542851159239,None,,,,,,,,,,,,,,,,,,,,,,,,,,,,,,,,,,,,,,,,,,,,,,17_YYF,17,25,F,2022-12-09_09h48.52.719,dynamic target,2022.1.3,120.13149580837877,
0,2,3,2,mix,0,98,98,98,,,,,,,None,759.5784139187572,None,758.5875706414004,759.586740311292,759.0788374223912,None,3,"[0.00868751717825944, 0.27501181031493616, 0.7423754111960079]","[0.05012095751271772, 0.5428825892699933, 1.2500169176951204]",759.5784139187572,None,[0 3 1 3 0 3 2 1],space,0,4.7673314472008315,0.0024687006603016926,None,760.3277751354458,None,1,765.098709861365,None,None,765.5982929323804,None,,,,,,,,,,,,,,,,,,,,,,,,,,,,,,,,,,,,,,,,,,,,,,17_YYF,17,25,F,2022-12-09_09h48.52.719,dynamic target,2022.1.3,120.13149580837877,
1,3,4,2,mix,0,99,99,99,,,,,,,None,766.6307295263014,None,765.64824054365,766.6473919328091,766.1311648963756,None,2,"[0.24103658808417094, 0.6990619418561437]","[0.3655056049688028, 1.2070183900959819]",766.6307295263014,None,[0 2 3 2 1 1 1 0],space,0,3.7720174082719495,0.0028285424450587016,None,767.3384469138759,None,1,771.110243399934,None,None,771.6098296780956,None,,,,,,,,,,,,,,,,,,,,,,,,,,,,,,,,,,,,,,,,,,,,,,17_YYF,17,25,F,2022-12-09_09h48.52.719,dynamic target,2022.1.3,120.13149580837877,
0,4,3,2,mix,0,100,100,100,,,,,,,None,772.6422851941784,None,771.6681213212032,None,772.1427093392413,None,1,[0.0076057468209000945],[0.5163533979875865],772.6422851941784,None,[1 2 2 2 3 3 0 3],space,0,3.571797526339651,0.0026303408203602885,None,772.6589322063851,None,1,776.2308920644623,None,None,776.7304940576396,None,,,,,,,,,,,,,,,,,,,,,,,,,,,,,,,,,,,,,,,,,,,,,,17_YYF,17,25,F,2022-12-09_09h48.52.719,dynamic target,2022.1.3,120.13149580837877,
0,5,4,2,mix,0,101,101,101,,,,,,,None,777.7629332172774,None,776.7721082206531,None,777.263352230907,None,1,[0.009613099523903657],[0.5177036064678759],777.7629332172774,None,[1 0 0 2 3 0 0 0],space,0,5.49020869336573,0.0022778754710088833,None,777.7795776637677,None,1,783.2749053330672,None,None,783.7744739719255,None,,,,,,,,,,,,,,,,,,,,,,,,,,,,,,,,,,,,,,,,,,,,,,17_YYF,17,25,F,2022-12-09_09h48.52.719,dynamic target,2022.1.3,120.13149580837877,
0,6,1,2,mix,0,102,102,102,,,,,,,None,784.8069331762263,None,783.8244408260712,None,784.2990435969814,None,1,[0.00929976135648758],[0.5164662895276706],784.8069331762263,None,[1 3 3 0 0 2 0 2],space,0,3.238985247332039,0.0026572808474156773,None,784.8152542769699,None,1,788.054169658667,None,None,788.553748239678,None,,,,,,,,,,,,,,,,,,,,,,,,,,,,,,,,,,,,,,,,,,,,,,17_YYF,17,25,F,2022-12-09_09h48.52.719,dynamic target,2022.1.3,120.13149580837877,
1,7,3,2,mix,0,103,103,103,,,,,,,None,789.5861758535902,None,788.6120568806596,789.6111620869156,789.0866102615205,None,2,"[0.008652238571812632, 0.29164888036939374]","[0.025238635718324076, 0.7919665481840639]",789.5861758535902,None,[1 1 0 2 0 2 3 2],space,0,4.5441718118277095,0.002556576460847282,None,789.8776114587481,None,1,794.4237239647896,None,None,794.9233112050947,None,,,,,,,,,,,,,,,,,,,,,,,,,,,,,,,,,,,,,,,,,,,,,,17_YYF,17,25,F,2022-12-09_09h48.52.719,dynamic target,2022.1.3,120.13149580837877,
1,8,2,2,mix,0,104,104,104,,,,,,,None,795.9474326314926,None,794.9733072442696,795.972411488382,795.4478583801283,None,2,"[0.008634278554382036, 0.7669835220044661]","[0.025247295012832183, 1.2751503590243374]",795.9474326314926,None,[1 0 1 3 2 2 1 3],space,0,4.035438592818537,0.002458437792483892,None,796.7217727050706,None,1,800.7599996407998,None,None,801.2595567339326,None,,,,,,,,,,,,,,,,,,,,,,,,,,,,,,,,,,,,,,,,,,,,,,17_YYF,17,25,F,2022-12-09_09h48.52.719,dynamic target,2022.1.3,120.13149580837877,
0,1,2,2,mix,0,105,105,105,,,,,,,None,802.2920266821725,None,801.317905143525,None,801.7924745601163,None,1,[0.0094206707617559],[0.5172655103192483],802.2920266821725,None,[2 0 3 0 3 3 1 2],space,0,5.679640377466967,0.0022140532646517386,None,802.3086743358081,None,1,807.9871903380235,None,None,808.4867285089949,None,,,,,,,,,,,,,,,,,,,,,,,,,,,,,,,,,,,,,,,,,,,,,,17_YYF,17,25,F,2022-12-09_09h48.52.719,dynamic target,2022.1.3,120.13149580837877,
1,8,3,1,mix,0,106,106,106,,,,,,,None,809.5192005418794,None,808.5450522235628,None,809.0113039069133,None,1,[0.009286291342959885],[0.5164258794875423],809.5192005418794,None,[0 3 2 2 2 1 0 1],space,0,4.5891869928536835,0.002813789572883252,None,809.5275232461963,None,1,814.1152712427725,None,None,814.6148693873743,None,,,,,,,,,,,,,,,,,,,,,,,,,,,,,,,,,,,,,,,,,,,,,,17_YYF,17,25,F,2022-12-09_09h48.52.719,dynamic target,2022.1.3,120.13149580837877,
0,7,4,1,mix,0,107,107,107,,,,,,,None,815.647319130594,None,814.6648227715068,None,815.1477557835269,None,1,[0.008754225816119288],[0.5174614669422226],815.647319130594,None,[0 2 2 3 2 1 2 3],space,0,3.7165094075648994,0.002463248511958227,None,815.6639568420774,None,1,819.385807801511,None,None,819.8853812510883,None,,,,,,,,,,,,,,,,,,,,,,,,,,,,,,,,,,,,,,,,,,,,,,17_YYF,17,25,F,2022-12-09_09h48.52.719,dynamic target,2022.1.3,120.13149580837877,
1,8,4,2,mix,0,108,108,108,,,,,,,None,820.9094808688928,None,819.9186719079985,820.9178223350141,820.409907579673,None,12,"[0.009104125448175182, 0.18337274381292445, 0.20837597501258642, 0.22507173583881013, 0.2505900346918679, 0.28340266648547185, 0.3166049665223909, 0.38326132755946674, 0.39988621045858963, 0.416528411946274, 0.43320300560890246, 0.7088944101687957]","[0.17507008415850578, 0.20067722095654972, 0.21669434968225687, 0.2333599633357153, 0.2749989817311871, 0.29995731288636307, 0.33327507018020697, 0.3918914368236983, 0.40821003727660354, 0.4248612187730032, 0.44985899782477645, 1.2161590770087969]",820.9094808688928,None,[2 0 2 0 3 1 0 1],space,0,8.79434652110831,0.0030132740562294202,None,821.6255570411772,None,1,830.4180614277511,None,None,830.9176422537644,None,,,,,,,,,,,,,,,,,,,,,,,,,,,,,,,,,,,,,,,,,,,,,,17_YYF,17,25,F,2022-12-09_09h48.52.719,dynamic target,2022.1.3,120.13149580837877,
0,1,1,2,mix,0,109,109,109,,,,,,,None,831.9500931194852,None,830.9759322932987,None,831.4422250281186,None,1,[0.008685592890742555],[0.5164688552445114],831.9500931194852,None,[0 1 1 2 2 0 1 3],space,0,2.1571690277041853,0.0023901255822238454,None,831.9584321802467,None,1,834.1149316060073,None,None,834.6144941512885,None,,,,,,,,,,,,,,,,,,,,,,,,,,,,,,,,,,,,,,,,,,,,,,17_YYF,17,25,F,2022-12-09_09h48.52.719,dynamic target,2022.1.3,120.13149580837877,
1,2,2,2,mix,0,110,110,110,,,,,,,None,835.6469259344904,None,834.6728133758515,835.6719278828314,835.1473744538634,None,1,[0.2500647041715638],[0.7502669147288543],835.6469259344904,None,[0 3 3 3 3 3 0 2],space,0,6.458866858743477,0.002666581570338167,None,835.8967369534103,None,1,842.357898254575,None,None,842.8574790805883,None,,,,,,,,,,,,,,,,,,,,,,,,,,,,,,,,,,,,,,,,,,,,,,17_YYF,17,25,F,2022-12-09_09h48.52.719,dynamic target,2022.1.3,120.13149580837877,
0,4,4,0,mix,0,111,111,111,,,,,,,None,843.889924975233,None,842.9157530843927,843.9149118499877,843.3903494410106,None,2,"[0.24166647156516774, 0.7669123233622486]","[0.5753241542674914, 1.2747218843137489]",843.889924975233,None,[1 0 1 0 2 3 3 1],space,0,2.650956625478102,0.0026781272963489755,None,844.6642618416654,None,1,847.3203284630686,None,None,847.8198980640705,None,,,,,,,,,,,,,,,,,,,,,,,,,,,,,,,,,,,,,,,,,,,,,,17_YYF,17,25,F,2022-12-09_09h48.52.719,dynamic target,2022.1.3,120.13149580837877,
1,5,2,2,mix,0,112,112,112,,,,,,,None,848.8523648051646,None,847.8615436571154,None,848.3527979302362,None,1,[0.009352358551495854],[0.5176327285407751],848.8523648051646,None,[2 1 2 0 1 3 1 1],space,0,3.821121059062534,0.00230962621708386,None,848.8690041202208,None,1,852.690762810063,None,None,853.1903369010697,None,,,,,,,,,,,,,,,,,,,,,,,,,,,,,,,,,,,,,,,,,,,,,,17_YYF,17,25,F,2022-12-09_09h48.52.719,dynamic target,2022.1.3,120.13149580837877,
0,6,1,2,mix,0,113,113,113,,,,,,,None,854.2144451781683,None,853.2236519322896,None,853.7148802275278,None,1,[0.008643258563097334],[0.5173921925879768],854.2144451781683,None,[2 0 3 0 0 2 1 0],space,0,2.875760243908644,0.0021515139173970965,None,854.2311255446939,None,1,857.1119800695119,None,None,857.611557688379,None,,,,,,,,,,,,,,,,,,,,,,,,,,,,,,,,,,,,,,,,,,,,,,17_YYF,17,25,F,2022-12-09_09h48.52.719,dynamic target,2022.1.3,120.13149580837877,
1,7,4,2,mix,0,114,114,114,,,,,,,None,858.6357038098008,None,857.6448656638777,None,858.1361298791517,None,1,[0.008654483573991456],[0.517937728128345],858.6357038098008,None,[1 0 1 0 3 1 2 1],space,0,2.645796968938157,0.0020206623589729134,None,858.6523508220075,None,1,861.3000852780133,None,None,861.7996696318874,None,,,,,,,,,,,,,,,,,,,,,,,,,,,,,,,,,,,,,,,,,,,,,,17_YYF,17,25,F,2022-12-09_09h48.52.719,dynamic target,2022.1.3,120.13149580837877,
1,8,2,2,mix,0,115,115,115,,,,,,,None,862.832121940824,None,861.8496371274623,None,862.3325480101744,None,1,[0.008682065029915975],[0.5173755154282844],862.832121940824,None,[2 1 0 3 0 2 0 1],space,0,3.74539745475613,0.0025761400520423194,None,862.848762859453,None,1,866.5955830543385,None,None,867.095180557511,None,,,,,,,,,,,,,,,,,,,,,,,,,,,,,,,,,,,,,,,,,,,,,,17_YYF,17,25,F,2022-12-09_09h48.52.719,dynamic target,2022.1.3,120.13149580837877,
1,1,1,2,mix,0,116,116,116,,,,,,,None,868.1192792131719,None,867.1284506886868,None,867.6196918125092,None,1,[0.009445045071515779],[0.5177260564901189],868.1192792131719,None,[2 0 3 3 2 1 2 2],space,0,3.065235545196174,0.0021024445832154015,None,868.1359608625557,None,1,871.1999809495528,None,None,871.69959897846,None,,,,,,,,,,,,,,,,,,,,,,,,,,,,,,,,,,,,,,,,,,,,,,17_YYF,17,25,F,2022-12-09_09h48.52.719,dynamic target,2022.1.3,120.13149580837877,
0,2,4,2,mix,0,117,117,117,,,,,,,None,872.7236870505385,None,871.7328633367724,872.7320124809298,872.2241217791839,None,2,"[0.008600603520790173, 0.7000321035320667]","[0.44147263165905315, 1.2081639826596984]",872.7236870505385,None,[2 0 3 0 2 3 0 3],space,0,3.274343070218947,0.002757343803295953,None,873.4314281709935,None,1,876.7036404635355,None,None,877.2032129509689,None,,,,,,,,,,,,,,,,,,,,,,,,,,,,,,,,,,,,,,,,,,,,,,17_YYF,17,25,F,2022-12-09_09h48.52.719,dynamic target,2022.1.3,120.13149580837877,
1,3,4,2,mix,0,118,118,118,,,,,,,None,878.2356687877664,None,877.2615520598379,None,877.7361333428694,None,1,[0.009470702239923412],[0.5176516507021915],878.2356687877664,None,[2 3 1 2 0 3 1 3],space,0,7.060267675988598,0.00224099329125238,None,878.252342419285,None,1,885.312974797926,None,None,885.8125739046718,None,,,,,,,,,,,,,,,,,,,,,,,,,,,,,,,,,,,,,,,,,,,,,,17_YYF,17,25,F,2022-12-09_09h48.52.719,dynamic target,2022.1.3,120.13149580837877,
0,4,4,2,mix,0,119,119,119,,,,,,,None,886.8450008771547,None,885.8625715474191,None,886.345418287211,None,1,[0.008679499313075212],[0.5172703210387226],886.8450008771547,None,[0 3 2 1 2 3 1 1],space,0,3.347180563808706,0.0026861451615332044,None,886.8616453236446,None,1,890.2088073361542,None,space,890.7166896993208,None,18.873212166384292,,,,,,,,,,,,,,,,,,,,,,,,,,,,,,,,,,,,,,,,,,,,,17_YYF,17,25,F,2022-12-09_09h48.52.719,dynamic target,2022.1.3,120.13149580837877,
0,3,3,1,mix,0,120,120,120,,,,,,,None,910.6330694600483,None,909.6589245092346,None,910.1334948879698,None,1,[0.01645169701305349],[0.5171304894715831],910.6330694600483,None,[1 0 1 1 0 3 1 3],space,0,2.0062705617788197,0.00229423191603928,None,910.649744053711,None,1,912.6563456431081,None,None,913.1559168476833,None,,,,,,,,,,,,,,,,,,,,,,,,,,,,,,,,,,,,,,,,,,,,,,17_YYF,17,25,F,2022-12-09_09h48.52.719,dynamic target,2022.1.3,120.13149580837877,
0,2,2,1,mix,0,121,121,121,,,,,,,None,914.1883733259101,None,913.2058731182474,None,913.6887990745463,None,1,[0.007789195573877805],[0.5164239552000254],914.1883733259101,None,[1 2 3 2 2 2 0 3],space,0,2.89876061240966,0.0025732536205396173,None,914.2050251488358,None,1,917.1025584366062,None,None,917.6021588262101,None,,,,,,,,,,,,,,,,,,,,,,,,,,,,,,,,,,,,,,,,,,,,,,17_YYF,17,25,F,2022-12-09_09h48.52.719,dynamic target,2022.1.3,120.13149580837877,
1,6,2,0,mix,0,122,122,122,,,,,,,None,918.6346044001402,None,917.6520955331835,918.6512456394844,918.1350109059003,None,2,"[0.008619846396868525, 0.29995154002335767]","[0.09201526473225385, 0.8004439972969521]",918.6346044001402,None,[0 0 2 1 1 0 0 2],space,0,3.4008050076495238,0.0025216185699719063,None,918.9343368920895,None,1,922.339774672334,None,None,922.8393231061723,None,,,,,,,,,,,,,,,,,,,,,,,,,,,,,,,,,,,,,,,,,,,,,,17_YYF,17,25,F,2022-12-09_09h48.52.719,dynamic target,2022.1.3,120.13149580837877,
1,7,4,2,mix,0,123,123,123,,,,,,,None,923.8634567197246,None,922.8893223524933,923.8884358973291,923.3638859962216,None,2,"[0.00862882640603857, 0.5501705079191197]","[0.12511621895464486, 1.0586311195156668]",923.8634567197246,None,[2 0 0 0 2 2 2 3],space,0,3.978108933164094,0.0023936534430504253,None,924.4213170016906,None,1,928.4012752254066,None,None,928.9008368085433,None,,,,,,,,,,,,,,,,,,,,,,,,,,,,,,,,,,,,,,,,,,,,,,17_YYF,17,25,F,2022-12-09_09h48.52.719,dynamic target,2022.1.3,120.13149580837877,
0,8,1,2,mix,0,124,124,124,,,,,,,None,929.9332916831968,None,928.9591306966531,None,929.4337180732623,None,1,[0.008635882127236982],[0.5175721134805826],929.9332916831968,None,[1 1 3 1 3 3 0 1],space,0,3.295978156653291,0.0018115564375875692,None,929.949953127561,None,1,933.247135617698,None,None,933.7467106708486,None,,,,,,,,,,,,,,,,,,,,,,,,,,,,,,,,,,,,,,,,,,,,,,17_YYF,17,25,F,2022-12-09_09h48.52.719,dynamic target,2022.1.3,120.13149580837877,
1,1,3,2,mix,0,125,125,125,,,,,,,None,934.7791507926304,None,933.8050215568323,None,934.2795678819721,None,1,[0.00855121347194654],[0.5168533920541449],934.7791507926304,None,[3 2 2 3 2 2 2 0],space,0,2.403128264236784,0.002995955468122702,None,934.7958613063283,None,1,937.2020963830769,None,None,937.7016810576656,None,,,,,,,,,,,,,,,,,,,,,,,,,,,,,,,,,,,,,,,,,,,,,,17_YYF,17,25,F,2022-12-09_09h48.52.719,dynamic target,2022.1.3,120.13149580837877,
1,2,4,2,mix,0,126,126,126,,,,,,,None,938.7341285558832,None,937.7516450253797,938.7507733230877,938.226225987697,None,2,"[0.00871092934448825, 0.44986477068778186]","[0.2000155867299327, 0.9501304827367676]",938.7341285558832,None,[3 0 0 3 0 1 3 3],space,0,3.3033831361321973,0.0024837742462295864,None,939.1754203045057,None,1,942.4809375257578,None,None,942.9805103339058,None,,,,,,,,,,,,,,,,,,,,,,,,,,,,,,,,,,,,,,,,,,,,,,17_YYF,17,25,F,2022-12-09_09h48.52.719,dynamic target,2022.1.3,120.13149580837877,
1,7,3,0,mix,0,127,127,127,,,,,,,None,944.0129648878446,None,943.0221113476205,None,943.5133906364808,None,1,[0.008981612469597167],[0.517624069246267],944.0129648878446,None,[2 3 2 3 0 1 2 1],space,0,2.5287999608844984,0.002217260411271127,None,944.0296253700649,None,1,946.5607868027223,None,None,947.0603692323089,None,,,,,,,,,,,,,,,,,,,,,,,,,,,,,,,,,,,,,,,,,,,,,,17_YYF,17,25,F,2022-12-09_09h48.52.719,dynamic target,2022.1.3,120.13149580837877,
1,8,1,2,mix,0,128,128,128,,,,,,,None,948.0928241069623,None,947.110348594324,948.1094813820364,947.593246007023,None,2,"[0.007797213439516781, 0.7078633127189278]","[0.01606908449139155, 1.2156084100352018]",948.0928241069623,None,[1 3 0 3 0 0 0 3],space,0,2.853406436048317,0.0029247568263599533,None,948.8088794327973,None,1,951.6647810786085,None,None,952.1643545281859,None,,,,,,,,,,,,,,,,,,,,,,,,,,,,,,,,,,,,,,,,,,,,,,17_YYF,17,25,F,2022-12-09_09h48.52.719,dynamic target,2022.1.3,120.13149580837877,
1,1,2,2,mix,0,129,129,129,,,,,,,None,953.1968392292974,None,952.2226618863087,None,952.6972332271876,None,1,[0.00775904840156727],[0.5167286340733881],953.1968392292974,None,[3 3 2 0 1 3 0 2],space,0,3.071882676067162,0.00229423191603928,None,953.2134971458004,None,1,956.2858413803301,None,None,956.7854183577683,None,,,,,,,,,,,,,,,,,,,,,,,,,,,,,,,,,,,,,,,,,,,,,,17_YYF,17,25,F,2022-12-09_09h48.52.719,dynamic target,2022.1.3,120.13149580837877,
0,2,2,2,mix,0,130,130,130,,,,,,,None,957.8178834952892,None,956.8270533672307,None,957.3182964153411,None,1,[0.009513998711099703],[0.5178229123002893],957.8178834952892,None,[3 0 3 1 1 3 3 0],space,0,4.051159381250272,0.0021980175351927755,None,957.8345305074959,None,1,961.8894031725731,None,None,962.3889775842945,None,,,,,,,,,,,,,,,,,,,,,,,,,,,,,,,,,,,,,,,,,,,,,,17_YYF,17,25,F,2022-12-09_09h48.52.719,dynamic target,2022.1.3,120.13149580837877,
1,3,1,2,mix,0,131,131,131,,,,,,,None,963.4214292518018,None,962.4306081037525,None,962.9218957311928,None,1,[0.00865672857617028],[0.5176769871554825],963.4214292518018,None,[2 3 3 3 1 2 3 2],space,0,3.935120668432319,0.0021819818043695705,None,963.4380461168357,None,1,967.3763717364486,None,None,967.8759685981918,None,,,,,,,,,,,,,,,,,,,,,,,,,,,,,,,,,,,,,,,,,,,,,,17_YYF,17,25,F,2022-12-09_09h48.52.719,dynamic target,2022.1.3,120.13149580837877,
1,4,1,2,mix,0,132,132,132,,,,,,,None,968.908422189987,None,967.925926151614,None,968.4088790479395,None,1,[0.009259030601697305],[0.517515026280762],968.908422189987,None,[0 3 3 0 3 2 3 3],space,0,4.192303312512195,0.0023282276633835863,None,968.9250897279285,None,1,973.1214863710729,None,None,973.6210530856433,None,,,,,,,,,,,,,,,,,,,,,,,,,,,,,,,,,,,,,,,,,,,,,,17_YYF,17,25,F,2022-12-09_09h48.52.719,dynamic target,2022.1.3,120.13149580837877,
0,8,3,0,mix,0,133,133,133,,,,,,,None,974.6535288067462,None,973.6794114373884,None,974.153953913953,None,1,[0.008190730257865653],[0.5168319041758878],974.6535288067462,None,[2 2 1 2 3 0 0 3],space,0,2.9755980585337056,0.0021274603222991573,None,974.6701729325214,None,1,977.6509807292218,None,None,978.150578553109,None,,,,,,,,,,,,,,,,,,,,,,,,,,,,,,,,,,,,,,,,,,,,,,17_YYF,17,25,F,2022-12-09_09h48.52.719,dynamic target,2022.1.3,120.13149580837877,
0,1,2,2,mix,0,134,134,134,,,,,,,None,979.1830018373739,None,978.2088785347964,None,978.6750926945383,None,1,[0.008656407861508342],[0.5164322937798715],979.1830018373739,None,[3 0 3 3 2 2 0 1],space,0,4.085314524374553,0.002697370172427327,None,979.1913376909897,None,1,983.2795037390515,None,None,983.7790877722105,None,,,,,,,,,,,,,,,,,,,,,,,,,,,,,,,,,,,,,,,,,,,,,,17_YYF,17,25,F,2022-12-09_09h48.52.719,dynamic target,2022.1.3,120.13149580837877,
0,2,2,2,mix,0,135,135,135,,,,,,,None,984.8115410432911,None,983.8207538909901,None,984.3119517183409,None,1,[0.008700345762463257],[0.5174640326590634],984.8115410432911,None,[2 3 3 2 1 3 1 2],space,0,2.415494057202068,0.002461644938648533,None,984.8281720197679,None,1,987.242794104111,None,None,987.7423810237019,None,,,,,,,,,,,,,,,,,,,,,,,,,,,,,,,,,,,,,,,,,,,,,,17_YYF,17,25,F,2022-12-09_09h48.52.719,dynamic target,2022.1.3,120.13149580837877,
0,3,2,2,mix,0,136,136,136,,,,,,,None,988.7664973186656,None,987.7756748877582,None,988.2669593080518,None,1,[0.008934788137594296],[0.5176368978300161],988.7664973186656,None,[3 1 0 2 1 3 1 3],space,0,3.085360065848363,0.002285893336193112,None,988.7831738366158,None,1,991.872185609087,None,None,992.3717744529654,None,,,,,,,,,,,,,,,,,,,,,,,,,,,,,,,,,,,,,,,,,,,,,,17_YYF,17,25,F,2022-12-09_09h48.52.719,dynamic target,2022.1.3,120.13149580837877,
1,7,4,0,mix,0,137,137,137,,,,,,,None,993.404210405457,None,992.4300458910529,None,992.904639681954,None,1,[0.009122726895384403],[0.5177991794193986],993.404210405457,None,[3 1 2 2 3 1 3 3],space,0,4.110950846201376,0.0020963510055480583,None,993.4208599833805,None,1,997.5340318283588,None,None,998.0336168236618,None,,,,,,,,,,,,,,,,,,,,,,,,,,,,,,,,,,,,,,,,,,,,,,17_YYF,17,25,F,2022-12-09_09h48.52.719,dynamic target,2022.1.3,120.13149580837877,
1,8,2,2,mix,0,138,138,138,,,,,,,None,999.0660861304727,None,998.083559944927,None,998.5665154069693,None,1,[0.008689120751114388],[0.5174496005015499],999.0660861304727,None,[0 2 3 1 2 0 3 2],space,0,4.353457590027574,0.0024712663766877085,None,999.0827190312366,None,1,1003.4373395825646,None,None,1003.9369075799937,None,,,,,,,,,,,,,,,,,,,,,,,,,,,,,,,,,,,,,,,,,,,,,,17_YYF,17,25,F,2022-12-09_09h48.52.719,dynamic target,2022.1.3,120.13149580837877,
1,1,1,2,mix,0,139,139,139,,,,,,,None,1004.9693521917798,None,1003.9868709062789,None,1004.4697891654268,None,1,[0.008546082038265013],[0.5170268986544215],1004.9693521917798,None,[2 1 0 3 3 0 2 3],space,0,3.16969934726103,0.002571329333477479,None,1004.9860296718739,None,1,1008.1583223675666,None,None,1008.6578906857103,None,,,,,,,,,,,,,,,,,,,,,,,,,,,,,,,,,,,,,,,,,,,,,,17_YYF,17,25,F,2022-12-09_09h48.52.719,dynamic target,2022.1.3,120.13149580837877,
0,2,1,2,mix,0,140,140,140,,,,,,,None,1009.6903455603638,None,1008.7162304360086,None,1009.1907706675706,None,1,[0.00961983453044013],[0.5176654414299264],1009.6903455603638,None,[3 2 0 3 1 3 2 1],space,0,2.6878349562998665,0.002278196185670822,None,1009.7070018732943,None,1,1012.3963714991196,None,None,1012.895940137978,None,,,,,,,,,,,,,,,,,,,,,,,,,,,,,,,,,,,,,,,,,,,,,,17_YYF,17,25,F,2022-12-09_09h48.52.719,dynamic target,2022.1.3,120.13149580837877,
0,3,3,2,mix,0,141,141,141,,,,,,,None,1013.9284145762222,None,1012.9542446096698,None,1013.4288290998475,None,1,[0.008622732828371227],[0.5170297850859242],1013.9284145762222,None,[0 1 1 0 2 1 0 1],space,0,2.8347677861538614,0.002841371028807771,None,1013.9450644748604,None,1,1016.7843027520203,None,None,1017.2838681837325,None,,,,,,,,,,,,,,,,,,,,,,,,,,,,,,,,,,,,,,,,,,,,,,17_YYF,17,25,F,2022-12-09_09h48.52.719,dynamic target,2022.1.3,120.13149580837877,
1,4,2,2,mix,0,142,142,142,,,,,,,None,1018.3163078244424,None,1017.3255112110601,None,1017.8167674084689,None,1,[0.008646786423469166],[0.5089310999196641],1018.3163078244424,None,[1 3 2 0 2 2 1 0],space,0,3.302828941297321,0.002606607939924288,None,1018.3246779945202,None,1,1021.6301560885904,None,None,1022.1297372353183,None,,,,,,,,,,,,,,,,,,,,,,,,,,,,,,,,,,,,,,,,,,,,,,17_YYF,17,25,F,2022-12-09_09h48.52.719,dynamic target,2022.1.3,120.13149580837877,
0,5,2,2,mix,0,143,143,143,,,,,,,None,1023.1622110321337,None,1022.1880506870189,1023.1871722497199,1022.662627480046,None,2,"[0.008071103710335592, 0.31602768023594763]","[0.06627535208826885, 0.8161054535271433]",1023.1622110321337,None,[2 3 2 2 3 2 2 1],space,0,3.380565991883941,0.0028394467417456326,None,1023.478585404856,None,1,1026.8590513839317,None,None,1027.3586264370824,None,,,,,,,,,,,,,,,,,,,,,,,,,,,,,,,,,,,,,,,,,,,,,,17_YYF,17,25,F,2022-12-09_09h48.52.719,dynamic target,2022.1.3,120.13149580837877,
0,6,4,2,mix,0,144,144,144,,,,,,,None,1028.3910593427854,None,1027.4169145523292,None,1027.8831777814057,None,1,[0.008657690720156097],[0.5164268416310733],1028.3910593427854,None,[1 0 0 2 1 3 2 0],space,0,3.467377662175295,0.002908079667122365,None,1028.3993897442529,None,1,1031.871470736236,None,None,1032.3710230186493,None,,,,,,,,,,,,,,,,,,,,,,,,,,,,,,,,,,,,,,,,,,,,,,17_YYF,17,25,F,2022-12-09_09h48.52.719,dynamic target,2022.1.3,120.13149580837877,
0,7,1,2,mix,0,145,145,145,,,,,,,None,1033.4034685925794,None,1032.4126375023775,1033.411793381541,1032.9039023590803,None,2,"[0.008892774524156266, 0.7421044073562371]","[0.15030225747796067, 1.2504367331112007]",1033.4034685925794,None,[1 3 2 1 1 2 2 2],space,0,2.401153945137594,0.0020668452621066535,None,1034.1528583528675,None,1,1036.5590975989062,None,None,1037.0586954227933,None,,,,,,,,,,,,,,,,,,,,,,,,,,,,,,,,,,,,,,,,,,,,,,17_YYF,17,25,F,2022-12-09_09h48.52.719,dynamic target,2022.1.3,120.13149580837877,
0,8,1,2,mix,0,146,146,146,,,,,,,None,1038.091146128157,None,1037.1086718983775,1038.1077815946383,1037.5915728389368,None,2,"[0.008651276428281562, 0.3166440937038715]","[0.158766236577776, 0.8166820983842626]",1038.091146128157,None,[2 0 0 0 0 3 3 3],space,0,2.8666577220337786,0.0030408555121539393,None,1038.4075451959038,None,1,1041.2717834971172,None,None,1041.7713620781283,None,,,,,,,,,,,,,,,,,,,,,,,,,,,,,,,,,,,,,,,,,,,,,,17_YYF,17,25,F,2022-12-09_09h48.52.719,dynamic target,2022.1.3,120.13149580837877,
0,3,3,0,mix,0,147,147,147,,,,,,,None,1042.8038073313437,None,1041.812978486144,None,1042.3042176856789,None,1,[0.00869200718261709],[0.5170820615662706],1042.8038073313437,None,[2 0 3 1 1 3 2 3],space,0,2.6134981219388465,0.00290743823734374,None,1042.8204719828536,None,1,1045.4348681558304,None,None,1045.9344739975827,None,,,,,,,,,,,,,,,,,,,,,,,,,,,,,,,,,,,,,,,,,,,,,,17_YYF,17,25,F,2022-12-09_09h48.52.719,dynamic target,2022.1.3,120.13149580837877,
0,2,4,1,mix,0,148,148,148,,,,,,,None,1046.9669192507981,None,1045.9761057998994,None,1046.467344358005,None,1,[0.009203867689393519],[0.5174428654950134],1046.9669192507981,None,[3 0 3 3 2 2 2 1],space,0,2.8498416932311557,0.0025123178465946694,None,1046.9835585658543,None,1,1049.8311735877414,None,None,1050.330706306564,None,,,,,,,,,,,,,,,,,,,,,,,,,,,,,,,,,,,,,,,,,,,,,,17_YYF,17,25,F,2022-12-09_09h48.52.719,dynamic target,2022.1.3,120.13149580837877,
1,3,1,2,mix,0,149,149,149,,,,,,,None,1051.3631878005299,None,1050.380752377217,1051.3798283984443,1050.8635997584379,None,1,[0.15011014943047485],[0.6506029274187313],1051.3631878005299,None,[2 2 0 1 3 3 0 1],space,0,2.496550824649148,0.002368637703511922,None,1051.5130394539901,None,1,1054.0109347644047,None,None,1054.5104976304,None,,,,,,,,,,,,,,,,,,,,,,,,,,,,,,,,,,,,,,,,,,,,,,17_YYF,17,25,F,2022-12-09_09h48.52.719,dynamic target,2022.1.3,120.13149580837877,
1,4,2,2,mix,0,150,150,150,,,,,,,None,1055.5346203396562,None,1054.543798229463,1055.542946732191,1055.0350496161527,None,2,"[0.008636844271222799, 0.7087917814960747]","[0.18347056176708065, 1.2165051280662738]",1055.5346203396562,None,[0 0 2 0 0 2 1 3],space,0,3.6627653371774613,0.0026822965855899383,None,1056.25066027119,None,1,1059.9141998635682,None,None,1060.4138114781836,None,,,,,,,,,,,,,,,,,,,,,,,,,,,,,,,,,,,,,,,,,,,,,,17_YYF,17,25,F,2022-12-09_09h48.52.719,dynamic target,2022.1.3,120.13149580837877,
1,5,3,2,mix,0,151,151,151,,,,,,,None,1061.446249996392,None,1060.47210376272,None,1060.9466751035989,None,1,[0.009008552496652555],[0.5173562725522061],1061.446249996392,None,[2 2 3 3 1 2 3 3],space,0,2.977823176452148,0.0025588214634808537,None,1061.4628995743155,None,1,1064.4436939010025,None,None,1064.9432744063015,None,,,,,,,,,,,,,,,,,,,,,,,,,,,,,,,,,,,,,,,,,,,,,,17_YYF,17,25,F,2022-12-09_09h48.52.719,dynamic target,2022.1.3,120.13149580837877,
1,6,1,2,mix,0,152,152,152,,,,,,,None,1065.9757247909502,None,1065.0015702186988,1066.0006815185325,1065.4761361074293,None,1,[0.7007636535422535],[1.208103046884844],1065.9757247909502,None,[2 3 3 2 3 1 2 2],space,0,8.445046945766535,0.00281282742980693,None,1066.6834405749519,None,1,1075.1262541143678,None,None,1075.6258221117969,None,,,,,,,,,,,,,,,,,,,,,,,,,,,,,,,,,,,,,,,,,,,,,,17_YYF,17,25,F,2022-12-09_09h48.52.719,dynamic target,2022.1.3,120.13149580837877,
1,5,2,1,mix,0,153,153,153,,,,,,,None,1076.6499579703514,None,1075.6841134341898,1076.683269634068,1076.1503955854278,None,2,"[0.008678537169544143, 0.6669564857634214]","[0.3416239127377594, 1.1747086388008938]",1076.6499579703514,None,[1 0 0 1 3 0 1 3],space,0,2.604496625164302,0.002880498211197846,None,1077.3243890306626,None,1,1079.930487675419,None,None,1080.4300964036029,None,,,,,,,,,,,,,,,,,,,,,,,,,,,,,,,,,,,,,,,,,,,,,,17_YYF,17,25,F,2022-12-09_09h48.52.719,dynamic target,2022.1.3,120.13149580837877,
1,6,2,2,mix,0,154,154,154,,,,,,,None,1081.4625243382297,None,1080.4800359970072,1081.4791864240228,1080.9629468797198,None,3,"[0.00797424790016521, 0.4158539491349984, 0.8582095080973886]","[0.25766082955396996, 0.5424377581148292, 1.365503039251962]",1081.4625243382297,None,[1 3 2 1 0 1 2 0],space,0,2.9758357080545466,0.003018084775249008,None,1082.3284502396864,None,1,1085.309268940683,None,None,1085.8088135259463,None,,,,,,,,,,,,,,,,,,,,,,,,,,,,,,,,,,,,,,,,,,,,,,17_YYF,17,25,F,2022-12-09_09h48.52.719,dynamic target,2022.1.3,120.13149580837877,
0,7,1,2,mix,0,155,155,155,,,,,,,None,1086.8412629484515,None,1085.8587742865143,None,1086.3417056949615,None,1,[0.008684310032549547],[0.5170900794314548],1086.8412629484515,None,[2 1 1 2 2 3 3 3],space,0,2.2708796732163137,0.0027393837854106096,None,1086.857940107831,None,1,1089.130995559065,None,None,1089.6305738193614,None,,,,,,,,,,,,,,,,,,,,,,,,,,,,,,,,,,,,,,,,,,,,,,17_YYF,17,25,F,2022-12-09_09h48.52.719,dynamic target,2022.1.3,120.13149580837877,
0,8,3,2,mix,0,156,156,156,,,,,,,None,1090.6629902082627,None,1089.6806009678526,None,1090.1634489905027,None,1,[0.008595792801770585],[0.5171920666753067],1090.6629902082627,None,[2 2 1 3 1 0 3 2],space,0,4.815535814243503,0.0022551047345586994,None,1090.6796987976732,None,1,1095.500553713763,None,None,1096.0001448026437,None,,,,,,,,,,,,,,,,,,,,,,,,,,,,,,,,,,,,,,,,,,,,,,17_YYF,17,25,F,2022-12-09_09h48.52.719,dynamic target,2022.1.3,120.13149580837877,
0,1,1,2,mix,0,157,157,157,,,,,,,None,1097.0242707190455,None,1096.033412688817,1097.0325993565825,1096.5247015991154,None,2,"[0.05021973761040499, 0.7835070590886062]","[0.3083000618657934, 1.2911706948952997]",1097.0242707190455,None,[2 2 2 2 3 3 1 1],space,0,2.928708621365331,0.003087038415742427,None,1097.815270633415,None,1,1100.7461078877514,None,None,1101.2456543973021,None,,,,,,,,,,,,,,,,,,,,,,,,,,,,,,,,,,,,,,,,,,,,,,17_YYF,17,25,F,2022-12-09_09h48.52.719,dynamic target,2022.1.3,120.13149580837877,
1,2,2,2,mix,0,158,158,158,,,,,,,None,1102.2781297976903,None,1101.3039883747374,None,1101.7785549048972,None,1,[0.00867180216300767],[0.5176407464055046],1102.2781297976903,None,[0 2 0 3 2 2 2 1],space,0,4.367968963690146,0.0023522812593910203,None,1102.294791242054,None,1,1106.6660491841503,None,None,1107.1656251994445,None,,,,,,,,,,,,,,,,,,,,,,,,,,,,,,,,,,,,,,,,,,,,,,17_YYF,17,25,F,2022-12-09_09h48.52.719,dynamic target,2022.1.3,120.13149580837877,
0,3,4,2,mix,0,159,159,159,,,,,,,None,1108.1980842433877,None,1107.2155901293027,None,1107.6985176891744,None,1,[0.009565954477238847],[0.5172962989217922],1108.1980842433877,None,[2 0 2 0 2 0 2 0],space,0,2.159799849596766,0.002296476917763357,None,1108.214750498471,None,1,1110.3795606017507,None,None,1110.8791209020292,None,,,,,,,,,,,,,,,,,,,,,,,,,,,,,,,,,,,,,,,,,,,,,,17_YYF,17,25,F,2022-12-09_09h48.52.719,dynamic target,2022.1.3,120.13149580837877,
1,4,1,2,mix,0,160,160,160,,,,,,,None,1111.9116049617119,None,1110.9207664950736,None,1111.4120072981818,None,1,[0.008690403609762143],[0.5175749999116306],1111.9116049617119,None,[3 2 1 0 2 2 3 2],space,0,6.030408184263251,0.002330793380679097,None,1111.9282413903366,None,1,1117.9564363732698,None,None,1118.4560136714222,None,,,,,,,,,,,,,,,,,,,,,,,,,,,,,,,,,,,,,,,,,,,,,,17_YYF,17,25,F,2022-12-09_09h48.52.719,dynamic target,2022.1.3,120.13149580837877,
1,5,1,2,mix,0,161,161,161,,,,,,,None,1119.4884698289343,None,1118.5143402724216,1119.5134304050916,1118.9888827489863,None,2,"[0.008655445717977273, 0.5342810236052173]","[0.275492561505871, 1.041751589220894]",1119.4884698289343,None,[1 3 0 0 3 3 3 2],space,0,2.2812288127552165,0.0026088529416483652,None,1120.0296763636866,None,1,1122.311052434593,None,None,1122.8106435234736,None,,,,,,,,,,,,,,,,,,,,,,,,,,,,,,,,,,,,,,,,,,,,,,17_YYF,17,25,F,2022-12-09_09h48.52.719,dynamic target,2022.1.3,120.13149580837877,
1,3,3,0,mix,0,162,162,162,,,,,,,None,1123.8347594977226,None,1122.84392904895,None,1123.3351797942105,None,1,[0.008675330023379502],[0.5176288799652866],1123.8347594977226,None,[0 3 0 3 1 2 0 0],space,0,2.0271012959874497,0.0024116134609357687,None,1123.851402019925,None,1,1125.8830023505175,None,None,1126.3825979294024,None,,,,,,,,,,,,,,,,,,,,,,,,,,,,,,,,,,,,,,,,,,,,,,17_YYF,17,25,F,2022-12-09_09h48.52.719,dynamic target,2022.1.3,120.13149580837877,
0,4,4,2,mix,0,163,163,163,,,,,,,None,1127.4150465501211,None,1126.4408761024965,None,1126.9071313137083,None,1,[0.009143573344317701],[0.5163745651511817],1127.4150465501211,None,[3 1 2 3 1 0 2 1],space,0,2.3270723996015477,0.003022254065854213,None,1127.4233804794494,None,1,1129.754725489146,None,None,1130.254279054418,None,,,,,,,,,,,,,,,,,,,,,,,,,,,,,,,,,,,,,,,,,,,,,,17_YYF,17,25,F,2022-12-09_09h48.52.719,dynamic target,2022.1.3,120.13149580837877,
1,3,4,1,mix,0,164,164,164,,,,,,,None,1131.2867518890894,None,1130.3125812811077,None,1130.7871654505707,None,1,[0.008675650737586693],[0.5175198369997815],1131.2867518890894,None,[0 1 3 3 1 1 0 3],space,0,7.27824328051156,0.0024173863234864257,None,1131.3033915248602,None,1,1138.5805229379898,None,None,1139.0801060090052,None,,,,,,,,,,,,,,,,,,,,,,,,,,,,,,,,,,,,,,,,,,,,,,17_YYF,17,25,F,2022-12-09_09h48.52.719,dynamic target,2022.1.3,120.13149580837877,
1,1,4,0,mix,0,165,165,165,,,,,,,None,1140.1042181346793,None,1139.1134143052186,None,1139.6046483733198,None,1,[0.00867308502074593],[0.517504121984075],1140.1042181346793,None,[2 1 3 2 1 1 1 3],space,0,10.092773704621322,0.002356450548631983,None,1140.1208866347642,None,1,1150.212274902447,None,None,1150.7118627841814,None,,,,,,,,,,,,,,,,,,,,,,,,,,,,,,,,,,,,,,,,,,,,,,17_YYF,17,25,F,2022-12-09_09h48.52.719,dynamic target,2022.1.3,120.13149580837877,
0,2,1,2,mix,0,166,166,166,,,,,,,None,1151.7443181399067,None,1150.761874217657,None,1151.2364157320776,None,1,[0.008691686467955151],[0.5164550645163217],1151.7443181399067,None,[0 2 3 1 2 1 1 3],space,0,4.876493076777479,0.0028064131370229006,None,1151.752651107091,None,1,1156.6317968645017,None,None,1157.131412327692,None,,,,,,,,,,,,,,,,,,,,,,,,,,,,,,,,,,,,,,,,,,,,,,17_YYF,17,25,F,2022-12-09_09h48.52.719,dynamic target,2022.1.3,120.13149580837877,
1,3,1,2,mix,0,167,167,167,,,,,,,None,1158.1638306408809,None,1157.1896850486382,None,1157.6642823674001,None,1,[0.00867212287721486],[0.5172690381800749],1158.1638306408809,None,[3 0 1 1 1 1 0 0],space,0,18.222849774917904,0.0023157197938417085,None,1158.180483105236,None,0,1176.4149723046908,None,None,1176.9145300392524,None,,,,,,,,,,,,,,,,,,,,,,,,,,,,,,,,,,,,,,,,,,,,,,17_YYF,17,25,F,2022-12-09_09h48.52.719,dynamic target,2022.1.3,120.13149580837877,
1,3,2,0,mix,0,168,168,168,,,,,,,None,1177.9469528424456,None,1176.9561535029893,None,1177.4474337539937,None,1,[0.009278914907099534],[0.5177767293971556],1177.9469528424456,None,[3 1 2 3 3 3 0 1],space,0,3.5273907409168714,0.002124253175679769,None,1177.963635774688,None,1,1181.5022967976329,None,None,1182.001875378644,None,,,,,,,,,,,,,,,,,,,,,,,,,,,,,,,,,,,,,,,,,,,,,,17_YYF,17,25,F,2022-12-09_09h48.52.719,dynamic target,2022.1.3,120.13149580837877,
0,4,1,2,mix,0,169,169,169,,,,,,,None,1183.0259891078908,None,1182.0601561174549,1183.0593030166096,1182.5264225536775,None,3,"[0.007951797877922218, 0.5418630375456814, 0.7082026287694134]","[0.37424379505455363, 0.6332381559295754, 1.2157411858806881]",1183.0259891078908,None,[2 0 0 1 2 1 0 0],space,0,2.0057237433798036,0.002840408885731449,None,1183.7420453958694,None,1,1185.7486691145746,None,None,1186.2482393570058,None,,,,,,,,,,,,,,,,,,,,,,,,,,,,,,,,,,,,,,,,,,,,,,17_YYF,17,25,F,2022-12-09_09h48.52.719,dynamic target,2022.1.3,120.13149580837877,
1,5,2,2,mix,0,170,170,170,,,,,,,None,1187.2807077016728,None,1186.3065842387377,1187.3056762956953,1186.7811225460123,None,2,"[0.008668915731504967, 0.5752670670681255]","[0.3511087264200796, 1.0835839985220446]",1187.2807077016728,None,[0 0 1 2 0 1 2 0],space,0,2.7796157786569893,0.002335283385036746,None,1187.8635275976521,None,1,1190.6445061428071,None,None,1191.1440898552519,None,,,,,,,,,,,,,,,,,,,,,,,,,,,,,,,,,,,,,,,,,,,,,,17_YYF,17,25,F,2022-12-09_09h48.52.719,dynamic target,2022.1.3,120.13149580837877,
0,6,2,2,mix,0,171,171,171,,,,,,,None,1192.1765408813303,None,1191.2023728390654,1192.2015290389436,1191.6769602156742,None,1,[0.06645719726839161],[0.5754174822168352],1192.1765408813303,None,[1 0 0 1 0 3 3 2],space,0,1.9764489143767605,0.002377938426889159,None,1192.251478093429,None,1,1194.2330774137704,None,None,1194.7326761998015,None,,,,,,,,,,,,,,,,,,,,,,,,,,,,,,,,,,,,,,,,,,,,,,17_YYF,17,25,F,2022-12-09_09h48.52.719,dynamic target,2022.1.3,120.13149580837877,
1,7,4,2,mix,0,172,172,172,,,,,,,None,1195.7568155862168,None,1194.774300946397,None,1195.2572265819813,None,1,[0.009385071440647152],[0.5173806468619659],1195.7568155862168,None,[3 1 0 2 0 3 3 2],space,0,3.429183439336157,0.0024994892623908527,None,1195.7734837655871,None,1,1199.2038779526993,None,None,1199.7034401772657,None,,,,,,,,,,,,,,,,,,,,,,,,,,,,,,,,,,,,,,,,,,,,,,17_YYF,17,25,F,2022-12-09_09h48.52.719,dynamic target,2022.1.3,120.13149580837877,
0,8,1,2,mix,0,173,173,173,,,,,,,None,1200.7275975236985,None,1199.7451075789031,None,1200.2280062744608,None,1,[0.009219903420216724],[0.5175458148828511],1200.7275975236985,None,[3 0 2 0 3 3 1 1],space,0,3.7386938781151002,0.0023875598649283347,None,1200.7442201615954,None,1,1204.4827065875102,None,None,1204.982290299955,None,,,,,,,,,,,,,,,,,,,,,,,,,,,,,,,,,,,,,,,,,,,,,,17_YYF,17,25,F,2022-12-09_09h48.52.719,dynamic target,2022.1.3,120.13149580837877,
0,1,4,2,mix,0,174,174,174,,,,,,,None,1206.0064078777773,None,1205.032250419094,None,1205.506851586431,None,1,[0.008701307905994327],[0.5169457578599577],1206.0064078777773,None,[2 0 3 2 1 2 2 2],space,0,2.5877559642931374,0.0029144939589969,None,1206.0230722085726,None,1,1208.6125145403985,None,None,1209.1121107607128,None,,,,,,,,,,,,,,,,,,,,,,,,,,,,,,,,,,,,,,,,,,,,,,17_YYF,17,25,F,2022-12-09_09h48.52.719,dynamic target,2022.1.3,120.13149580837877,
1,2,2,2,mix,0,175,175,175,,,,,,,None,1210.1362334699688,None,1209.1454107183463,1210.144575577519,1209.6366601807485,None,2,"[0.008693290041264845, 0.6670934308990581]","[0.46645277140714825, 1.174877655396358]",1210.1362334699688,None,[1 3 2 3 0 3 1 1],space,0,3.351869732025534,0.0025787057688830828,None,1210.8106568331295,None,1,1214.1661304853023,None,None,1214.665697841302,None,,,,,,,,,,,,,,,,,,,,,,,,,,,,,,,,,,,,,,,,,,,,,,17_YYF,17,25,F,2022-12-09_09h48.52.719,dynamic target,2022.1.3,120.13149580837877,
0,3,4,2,mix,0,176,176,176,,,,,,,None,1215.698160413106,None,1214.715713123353,None,1215.19858391674,None,1,[0.008929015274588892],[0.5175544741769045],1215.698160413106,None,[2 0 2 0 3 2 1 3],space,0,3.3433720778925817,0.002304494782947586,None,1215.7148144810344,None,1,1219.0619604578137,None,None,1219.5615217202362,None,,,,,,,,,,,,,,,,,,,,,,,,,,,,,,,,,,,,,,,,,,,,,,17_YYF,17,25,F,2022-12-09_09h48.52.719,dynamic target,2022.1.3,120.13149580837877,
1,4,3,2,mix,0,177,177,177,,,,,,,None,1220.5939874991864,None,1219.619805986908,None,1220.0944010606677,None,1,[0.008970387458703044],[0.5174428654950134],1220.5939874991864,None,[1 1 1 0 3 1 0 2],space,0,2.5271319242319805,0.0025764607671590056,None,1220.610640925685,None,1,1223.1418171112146,None,None,1223.6413944093674,None,,,,,,,,,,,,,,,,,,,,,,,,,,,,,,,,,,,,,,,,,,,,,,17_YYF,17,25,F,2022-12-09_09h48.52.719,dynamic target,2022.1.3,120.13149580837877,
0,5,2,2,mix,0,178,178,178,,,,,,,None,1224.6738460768747,None,1223.6996719410322,None,1224.1742561104952,None,1,[0.009524261578462756],[0.5172943746338206],1224.6738460768747,None,[3 2 0 1 0 0 3 1],space,0,2.7191485680368714,0.0025700464748297236,None,1224.690500786232,None,1,1227.4131689264755,None,None,1227.9127574496392,None,,,,,,,,,,,,,,,,,,,,,,,,,,,,,,,,,,,,,,,,,,,,,,17_YYF,17,25,F,2022-12-09_09h48.52.719,dynamic target,2022.1.3,120.13149580837877,
0,5,1,0,mix,0,179,179,179,,,,,,,None,1228.945191798558,None,1227.962697684473,1228.9618599779287,1228.4456204336257,None,2,"[0.009015608217850968, 0.49146594475951133]","[0.30040438904370603, 1.0005865870098205]",1228.945191798558,None,[0 0 0 0 2 3 0 0],space,0,2.3164573876565555,0.0022461247249339067,None,1229.4447811235082,None,1,1231.759466613129,None,space,1232.2673711056027,None,13.627306168476025,,,,,,,,,,,,,,,,,,,,,,,,,,,,,,,,,,,,,,,,,,,,,17_YYF,17,25,F,2022-12-09_09h48.52.719,dynamic target,2022.1.3,120.13149580837877,
1,6,3,2,mix,0,180,180,180,,,,,,,None,1246.938207275924,None,1245.9556939189624,None,1246.438625006695,None,1,[0.008638447843622998],[0.5172257417084438],1246.938207275924,None,[0 1 1 2 1 0 1 1],space,0,3.5257897336164206,0.002507507126665587,None,1246.954838573115,None,1,1250.4851719206667,None,None,1250.9847614059745,None,,,,,,,,,,,,,,,,,,,,,,,,,,,,,,,,,,,,,,,,,,,,,,17_YYF,17,25,F,2022-12-09_09h48.52.719,dynamic target,2022.1.3,120.13149580837877,
1,3,4,0,mix,0,181,181,181,,,,,,,None,1252.0171989620394,None,1251.043100835558,None,1251.5176404256913,None,1,[0.008696497187429486],[0.5171914252459828],1252.0171989620394,None,[1 0 0 1 1 2 0 2],space,0,3.9669378020967088,0.002784925259220472,None,1252.0339078721645,None,1,1256.0054822954316,None,None,1256.505059593584,None,,,,,,,,,,,,,,,,,,,,,,,,,,,,,,,,,,,,,,,,,,,,,,17_YYF,17,25,F,2022-12-09_09h48.52.719,dynamic target,2022.1.3,120.13149580837877,
1,4,2,2,mix,0,182,182,182,,,,,,,None,1257.5291691535413,None,1256.538364361937,1257.537493301074,1257.0296157486268,None,2,"[0.008620167111530463, 0.5678088489648871]","[0.33330425520898643, 1.0751472801634918]",1257.5291691535413,None,[2 3 0 2 2 0 1 0],space,0,7.640026030363515,0.0022454832965195237,None,1258.1037033877406,None,1,1265.7471928652549,None,None,1266.2467348848008,None,,,,,,,,,,,,,,,,,,,,,,,,,,,,,,,,,,,,,,,,,,,,,,17_YYF,17,25,F,2022-12-09_09h48.52.719,dynamic target,2022.1.3,120.13149580837877,
1,5,3,2,mix,0,183,183,183,,,,,,,None,1267.2792179823396,None,1266.288392344286,None,1266.7796283366747,None,1,[0.009377053575462924],[0.5173527446913795],1267.2792179823396,None,[2 1 0 3 0 2 1 3],space,0,3.679604457431651,0.0025245050005651137,None,1267.2958499209599,None,0,1270.9843901788208,None,None,1271.483968759832,None,,,,,,,,,,,,,,,,,,,,,,,,,,,,,,,,,,,,,,,,,,,,,,17_YYF,17,25,F,2022-12-09_09h48.52.719,dynamic target,2022.1.3,120.13149580837877,
0,6,3,2,mix,0,184,184,184,,,,,,,None,1272.5164075987554,None,1271.542331280867,1272.5414034535193,1272.0168381581107,None,8,"[0.05805415394388547, 0.07467839541368448, 0.4660008845307857, 0.5076264329127298, 0.5584542454116672, 0.5831746063308856, 0.6330672150461396, 0.6503842000593067]","[0.0663478335891341, 0.08301793724695017, 0.5001492926480751, 0.5330664774023717, 0.5667206643156533, 0.6003639469322479, 0.6411360737542964, 1.1579294921775727]",1272.5164075987554,None,[2 0 1 3 1 3 2 3],space,0,4.329303931812319,0.0024725492348807165,None,1273.1741935711475,None,1,1277.512146584534,None,None,1278.0117360698414,None,,,,,,,,,,,,,,,,,,,,,,,,,,,,,,,,,,,,,,,,,,,,,,17_YYF,17,25,F,2022-12-09_09h48.52.719,dynamic target,2022.1.3,120.13149580837877,
0,7,2,2,mix,0,185,185,185,,,,,,,None,1279.03588475698,None,1278.0450430831966,1279.0441858130612,1278.5362957527445,None,2,"[0.008735624368910067, 0.6838241496170667]","[0.4505972828414997, 1.1918296671910866]",1279.03588475698,None,[3 2 1 3 3 3 1 2],space,0,6.960384319889727,0.002542465019359952,None,1279.726954170204,None,0,1286.696019963843,None,None,1287.1955677562519,None,,,,,,,,,,,,,,,,,,,,,,,,,,,,,,,,,,,,,,,,,,,,,,17_YYF,17,25,F,2022-12-09_09h48.52.719,dynamic target,2022.1.3,120.13149580837877,
1,8,3,2,mix,0,186,186,186,,,,,,,None,1288.2197013698042,None,1287.2288766938946,1288.228032573058,1287.7201245527235,None,2,"[0.008658332149025227, 0.6925062146469827]","[0.19172575565971783, 1.199701286418076]",1288.2197013698042,None,[2 0 3 3 3 2 0 3],space,0,2.6482597363774403,0.002534126439059037,None,1288.9190833848347,None,1,1291.5751753426916,None,None,1292.074760979424,None,,,,,,,,,,,,,,,,,,,,,,,,,,,,,,,,,,,,,,,,,,,,,,17_YYF,17,25,F,2022-12-09_09h48.52.719,dynamic target,2022.1.3,120.13149580837877,
0,1,1,2,mix,0,187,187,187,,,,,,,None,1293.1071950076284,None,1292.124690630676,1293.1238356055428,1292.6076191526913,None,2,"[0.03355027538145805, 0.7341301594560719]","[0.5081835141791089, 1.241550052164257]",1293.1071950076284,None,[3 0 2 1 3 0 3 2],space,0,3.3026935997349938,0.0026656194263523503,None,1293.8482574132381,None,1,1297.1537399973126,None,None,1297.6533471219232,None,,,,,,,,,,,,,,,,,,,,,,,,,,,,,,,,,,,,,,,,,,,,,,17_YYF,17,25,F,2022-12-09_09h48.52.719,dynamic target,2022.1.3,120.13149580837877,
0,2,4,2,mix,0,188,188,188,,,,,,,None,1298.6774547575928,None,1297.6866230259616,1298.6857894887075,1298.1778785819415,None,5,"[0.008673726450069807, 0.2999804043374752, 0.3833062276039527, 0.42486635020668473, 0.9171959793934548]","[0.2916261096324888, 0.31663222726319873, 0.4089957880551083, 0.7008059878698987, 1.4247451200867545]",1298.6774547575928,None,[3 1 0 2 3 2 0 3],space,0,5.885014463791322,0.0026636951388354646,None,1299.6016628410762,None,1,1305.488312358064,None,None,1305.9878790726348,None,,,,,,,,,,,,,,,,,,,,,,,,,,,,,,,,,,,,,,,,,,,,,,17_YYF,17,25,F,2022-12-09_09h48.52.719,dynamic target,2022.1.3,120.13149580837877,
0,3,4,2,mix,0,189,189,189,,,,,,,None,1307.0203644151757,None,1306.0461675085962,None,1306.5207657895016,None,1,[0.01650974635640523],[0.5171006630134798],1307.0203644151757,None,[0 1 2 1 2 3 1 1],space,0,4.257014860194431,0.002445288494527631,None,1307.0369979573688,None,1,1311.2917143061486,None,None,1311.7912835864363,None,,,,,,,,,,,,,,,,,,,,,,,,,,,,,,,,,,,,,,,,,,,,,,17_YYF,17,25,F,2022-12-09_09h48.52.719,dynamic target,2022.1.3,120.13149580837877,
1,4,2,2,mix,0,190,190,190,,,,,,,None,1312.823734933229,None,1311.8329115401775,1312.832062608622,1312.324162285438,None,3,"[0.008599641376804357, 0.500743897522625, 0.7831818544805174]","[0.2916328446390253, 0.6678942552634908, 1.2833558421530142]",1312.823734933229,None,[1 3 1 1 1 2 0 2],space,0,4.326718330679341,0.002503658552086563,None,1313.6064026822005,None,1,1317.9360405280631,None,None,1318.4356425212404,None,,,,,,,,,,,,,,,,,,,,,,,,,,,,,,,,,,,,,,,,,,,,,,17_YYF,17,25,F,2022-12-09_09h48.52.719,dynamic target,2022.1.3,120.13149580837877,
1,5,3,2,mix,0,191,191,191,,,,,,,None,1319.459738611184,None,1318.4773051121588,None,1318.9601717362561,None,1,[0.00777091484178527],[0.5163976566027486],1319.459738611184,None,[0 1 1 2 0 1 2 1],space,0,4.328486109573532,0.002361902697430196,None,1319.476378246955,None,1,1323.8060613135767,None,None,1324.3056187274237,None,,,,,,,,,,,,,,,,,,,,,,,,,,,,,,,,,,,,,,,,,,,,,,17_YYF,17,25,F,2022-12-09_09h48.52.719,dynamic target,2022.1.3,120.13149580837877,
0,6,2,2,mix,0,192,192,192,,,,,,,None,1325.338064461711,None,1324.3639751548812,None,1324.8301639781698,None,1,[0.00919103910564445],[0.5165050959944892],1325.338064461711,None,[3 2 0 1 2 2 2 3],space,0,4.522800032083069,0.002524505001019861,None,1325.3463990324685,None,1,1329.8675378130538,None,None,1330.3671218462132,None,,,,,,,,,,,,,,,,,,,,,,,,,,,,,,,,,,,,,,,,,,,,,,17_YYF,17,25,F,2022-12-09_09h48.52.719,dynamic target,2022.1.3,120.13149580837877,
0,5,4,1,mix,0,193,193,193,,,,,,,None,1331.3995738344352,None,1330.4254215071855,1331.424547880606,1330.900014335943,None,3,"[0.008682385744577914, 0.30111092331480904, 0.7833669068068048]","[0.03356246253633799, 0.5336495365513656, 1.2833956107638187]",1331.3995738344352,None,[3 3 2 2 0 3 2 0],space,0,3.38257911744995,0.002620077952997235,None,1332.1822261891057,None,1,1335.5627005067613,None,None,1336.0622768427702,None,,,,,,,,,,,,,,,,,,,,,,,,,,,,,,,,,,,,,,,,,,,,,,17_YYF,17,25,F,2022-12-09_09h48.52.719,dynamic target,2022.1.3,120.13149580837877,
1,3,1,0,mix,0,194,194,194,,,,,,,None,1337.0947102295454,None,1336.1205992744794,None,1336.5951449581903,None,1,[0.00911246402802135],[0.5175374763034597],1337.0947102295454,None,[0 3 3 3 3 0 3 1],space,0,3.732877077352441,0.0022140532646517386,None,1337.1113825782054,None,1,1340.849859382682,None,None,1341.3494296251138,None,,,,,,,,,,,,,,,,,,,,,,,,,,,,,,,,,,,,,,,,,,,,,,17_YYF,17,25,F,2022-12-09_09h48.52.719,dynamic target,2022.1.3,120.13149580837877,
0,4,3,2,mix,0,195,195,195,,,,,,,None,1342.3818825754797,None,1341.4077126089269,None,1341.8823076826866,None,1,[0.008658973578349105],[0.517268076036089],1342.3818825754797,None,[1 1 3 3 3 0 2 2],space,0,3.789140360950114,0.0020921817153976008,None,1342.3985199662484,None,0,1346.1953187213626,None,None,1346.6948681173444,None,,,,,,,,,,,,,,,,,,,,,,,,,,,,,,,,,,,,,,,,,,,,,,17_YYF,17,25,F,2022-12-09_09h48.52.719,dynamic target,2022.1.3,120.13149580837877,
1,5,3,2,mix,0,196,196,196,,,,,,,None,1347.7273229919979,None,1346.744887568685,None,1347.2277529099238,None,1,[0.008575267067044479],[0.5173107310783962],1347.7273229919979,None,[3 2 2 2 2 2 2 0],space,0,3.4201072160581134,0.0025806300563999685,None,1347.7440020756649,None,1,1351.1660493445074,None,None,1351.6656577519766,None,,,,,,,,,,,,,,,,,,,,,,,,,,,,,,,,,,,,,,,,,,,,,,17_YYF,17,25,F,2022-12-09_09h48.52.719,dynamic target,2022.1.3,120.13149580837877,
0,4,4,1,mix,0,197,197,197,,,,,,,None,1352.6980892144643,None,1351.723973127965,1352.723079296365,1352.1985242638239,None,2,"[0.3915546864905082, 0.8924329634319292]","[0.6835669365054855, 1.3998560632858243]",1352.6980892144643,None,[1 2 1 0 3 3 2 2],space,0,3.358929301876742,0.00249820640328835,None,1353.5973315903566,None,1,1356.9611207307676,None,None,1357.4606874453384,None,,,,,,,,,,,,,,,,,,,,,,,,,,,,,,,,,,,,,,,,,,,,,,17_YYF,17,25,F,2022-12-09_09h48.52.719,dynamic target,2022.1.3,120.13149580837877,
0,5,1,2,mix,0,198,198,198,,,,,,,None,1358.4848345289042,None,1357.4940313408724,1358.4931458478527,1357.9852641261155,None,2,"[0.00866025643699686, 0.7093780477907785]","[0.4665810572482769, 1.2166420732019105]",1358.4848345289042,None,[1 2 0 1 1 0 1 3],space,0,3.5797015377420394,0.0026114186580343812,None,1359.2008840818762,None,1,1362.7811668046274,None,None,1363.2807476306407,None,,,,,,,,,,,,,,,,,,,,,,,,,,,,,,,,,,,,,,,,,,,,,,17_YYF,17,25,F,2022-12-09_09h48.52.719,dynamic target,2022.1.3,120.13149580837877,
1,6,3,2,mix,0,199,199,199,,,,,,,None,1364.3131806967012,None,1363.3390206723016,1364.3381723821753,1363.8136401203706,None,4,"[0.009732405356317031, 0.3998467625624471, 0.5252994111360749, 1.15030867177029]","[0.17510087276059494, 0.408572765493318, 0.9919449320200329, 1.6576580072655815]",1364.3131806967012,None,[3 3 1 1 0 1 2 2],space,0,3.325077234053424,0.002886912503072381,None,1365.4705200740082,None,1,1368.7926887974713,None,None,1369.292276358491,None,,,,,,,,,,,,,,,,,,,,,,,,,,,,,,,,,,,,,,,,,,,,,,17_YYF,17,25,F,2022-12-09_09h48.52.719,dynamic target,2022.1.3,120.13149580837877,
1,5,3,1,mix,0,200,200,200,,,,,,,None,1370.3247212909919,None,1369.3422307047672,None,1369.8251550574932,None,1,[0.009210281982177548],[0.5177177179107275],1370.3247212909919,None,[2 0 1 1 3 0 3 2],space,0,5.3815996550511045,0.002173322509861464,None,1370.3413933189377,None,1,1375.72846569813,None,None,1376.228027601982,None,,,,,,,,,,,,,,,,,,,,,,,,,,,,,,,,,,,,,,,,,,,,,,17_YYF,17,25,F,2022-12-09_09h48.52.719,dynamic target,2022.1.3,120.13149580837877,
0,6,1,2,mix,0,201,201,201,,,,,,,None,1377.2604962673631,None,1376.2779995875612,1377.2771484110035,1376.7609216952847,None,2,"[0.008425814061865822, 0.5585732305294187]","[0.2506535361835631, 1.066270862084366]",1377.2604962673631,None,[3 1 2 2 1 1 2 3],space,0,4.2484193881073224,0.0028089788547731587,None,1377.826686790439,None,1,1382.0730542966617,None,None,1382.5726447441134,None,,,,,,,,,,,,,,,,,,,,,,,,,,,,,,,,,,,,,,,,,,,,,,17_YYF,17,25,F,2022-12-09_09h48.52.719,dynamic target,2022.1.3,120.13149580837877,
1,5,3,1,mix,0,202,202,202,,,,,,,None,1383.6050797344615,None,1382.6309293314994,None,1383.0971980127242,None,2,"[0.01740293652710534, 0.03315290998807541]","[0.024899319668293174, 0.5332268347042373]",1383.6050797344615,None,[2 2 3 1 2 1 2 2],space,0,3.804452558977573,0.0026861451606237097,None,1383.6300553842052,None,1,1387.4351449325331,None,None,1387.9347395492741,None,,,,,,,,,,,,,,,,,,,,,,,,,,,,,,,,,,,,,,,,,,,,,,17_YYF,17,25,F,2022-12-09_09h48.52.719,dynamic target,2022.1.3,120.13149580837877,
1,6,4,2,mix,0,203,203,203,,,,,,,None,1388.9671854439189,None,1387.9930571702648,None,1388.4676034954045,None,1,[0.008652880000681762],[0.5171952738210166],1388.9671854439189,None,[3 3 3 1 0 1 0 3],space,0,2.6430510105033136,0.0027688895288520143,None,1388.9838244382604,None,1,1391.623257838185,None,None,1392.1228319291913,None,,,,,,,,,,,,,,,,,,,,,,,,,,,,,,,,,,,,,,,,,,,,,,17_YYF,17,25,F,2022-12-09_09h48.52.719,dynamic target,2022.1.3,120.13149580837877,
0,7,1,2,mix,0,204,204,204,,,,,,,None,1393.1469620148832,None,1392.1561536954182,1393.1553333074626,1392.6473771799374,None,2,"[0.008537422743756906, 0.5079974997088357]","[0.25000216482339965, 1.008378669015201]",1393.1469620148832,None,[3 3 0 2 3 0 0 0],space,0,2.930732330513365,0.0024443263505418145,None,1393.6548379637575,None,0,1396.594007062777,None,None,1397.093579550211,None,,,,,,,,,,,,,,,,,,,,,,,,,,,,,,,,,,,,,,,,,,,,,,17_YYF,17,25,F,2022-12-09_09h48.52.719,dynamic target,2022.1.3,120.13149580837877,
