tar_letter,tar_pos,tar_ori,tar_pos_type,block,trials.thisRepN,trials.thisTrialN,trials.thisN,trials.thisIndex,instructions_key.keys,instructions_key.rt,instructions_key.started,instructions_key.stopped,instruction_text.started,instruction_text.stopped,fix_key.keys,fix_key.started,fix_key.stopped,fixcross.started,fixcross.stopped,roi.started,roi.stopped,roi.numLooks,roi.timesOn,roi.timesOff,RedFixCross.started,RedFixCross.stopped,distori,search_resp.keys,search_resp.corr,search_resp.rt,search_resp.started,search_resp.stopped,fixcross_shape.started,fixcross_shape.stopped,correct,feedback_text.started,feedback_text.stopped,break_key.keys,break_key.started,break_key.stopped,break_key.rt,text_q1.started,text_q1.stopped,key_resp1.keys,key_resp1.rt,key_resp1.started,key_resp1.stopped,text_q2.started,text_q2.stopped,key_resp_2.keys,key_resp_2.rt,key_resp_2.started,key_resp_2.stopped,image.started,image.stopped,text_q1_2.started,text_q1_2.stopped,slider.response,slider.rt,slider.started,slider.stopped,mouse.x,mouse.y,mouse.leftButton,mouse.midButton,mouse.rightButton,mouse.time,mouse.started,mouse.stopped,key_resp_3.keys,key_resp_3.rt,key_resp_3.started,key_resp_3.stopped,text_q4.started,text_q4.stopped,key_resp1_3.keys,key_resp1_3.rt,key_resp1_3.started,key_resp1_3.stopped,finish_text.started,finish_text.stopped,key_resp.keys,key_resp.rt,key_resp.started,key_resp.stopped,participant,group,age,gender,date,expName,psychopyVersion,frameRate,
,,,,,,,,,space,2.774950201241154,34.0552031624934,None,,,,,,,,,,,,,,,,,,,,,,,,,,,,,,,,,,,,,,,,,,,,,,,,,,,,,,,,,,,,,,,,,,,,,,,,,,18_GV,18,28,F,2022-12-12_09h43.59.205,dynamic target,2022.1.3,120.09575164648815,
1,5,1,0,mix,0,0,0,0,,,,,34.0552031624934,None,None,93.28789119852627,None,92.30602755700193,None,92.78833121769185,None,1,[0.009004998643376894],[0.5173069929051053],93.28789119852627,None,[2 1 0 3 2 0 1 2],space,0,4.537532600603299,0.007277314060956996,None,93.31286870046188,None,1,97.8590190779737,None,None,98.35856895632728,None,,,,,,,,,,,,,,,,,,,,,,,,,,,,,,,,,,,,,,,,,,,,,,18_GV,18,28,F,2022-12-12_09h43.59.205,dynamic target,2022.1.3,120.09575164648815,
0,6,3,2,mix,0,1,1,1,,,,,,,None,99.38268886988848,None,98.39185438572758,None,98.87481711302507,None,1,[0.009270228855257301],[0.5164869280315543],99.38268886988848,None,[3 0 1 2 3 1 3 1],space,0,3.3183376304195917,0.0021296991772032925,None,99.39102341658827,None,0,102.72151405078694,None,None,103.22108541695647,None,,,,,,,,,,,,,,,,,,,,,,,,,,,,,,,,,,,,,,,,,,,,,,18_GV,18,28,F,2022-12-12_09h43.59.205,dynamic target,2022.1.3,120.09575164648815,
1,7,3,2,mix,0,2,2,2,,,,,,,None,104.24522409226802,None,103.26275077404262,None,103.7456358886302,None,1,[0.008668249281981844],[0.5173502892516808],104.24522409226802,None,[2 1 3 0 3 3 3 2],space,0,1.93592954535643,0.002770164391677099,None,104.26183898505678,None,1,106.20187226230792,None,None,106.70143144135758,None,,,,,,,,,,,,,,,,,,,,,,,,,,,,,,,,,,,,,,,,,,,,,,18_GV,18,28,F,2022-12-12_09h43.59.205,dynamic target,2022.1.3,120.09575164648815,
1,6,2,1,mix,0,3,3,3,,,,,,,None,107.73389744731139,None,106.7597229162111,None,107.23431790294308,None,1,[0.008718280615539697],[0.5173769084867672],107.73389744731139,None,[3 0 1 1 2 1 1 3],space,0,1.1834582861124545,0.0027890864985238295,None,107.75055275002342,None,1,108.93286436441258,None,None,109.43244695556118,None,,,,,,,,,,,,,,,,,,,,,,,,,,,,,,,,,,,,,,,,,,,,,,18_GV,18,28,F,2022-12-12_09h43.59.205,dynamic target,2022.1.3,120.09575164648815,
1,7,1,2,mix,0,4,4,4,,,,,,,None,110.45659974227465,None,109.48245054755444,None,109.95700608650395,None,1,[0.008711866341855057],[0.5176844729039658],110.45659974227465,None,[1 3 0 3 0 2 2 2],space,0,2.8602754337748593,0.002429566466162214,None,110.47322874646488,None,1,113.33742831247491,None,None,113.83700513077733,None,,,,,,,,,,,,,,,,,,,,,,,,,,,,,,,,,,,,,,,,,,,,,,18_GV,18,28,F,2022-12-12_09h43.59.205,dynamic target,2022.1.3,120.09575164648815,
1,3,4,0,mix,0,5,5,5,,,,,,,None,114.86947049530363,None,113.89529660563039,None,114.36988838522575,None,1,[0.008691982094205741],[0.5170122570357307],114.86947049530363,None,[0 0 2 0 1 0 0 1],space,0,3.1354134529055955,0.002961309743568563,None,114.8861238737336,None,1,118.02510931525694,None,None,118.52470922494408,None,,,,,,,,,,,,,,,,,,,,,,,,,,,,,,,,,,,,,,,,,,,,,,18_GV,18,28,F,2022-12-12_09h43.59.205,dynamic target,2022.1.3,120.09575164648815,
0,4,2,2,mix,0,6,6,6,,,,,,,None,119.54880749033191,None,118.56636560204697,None,119.04923307738227,None,1,[0.007935418528177252],[0.5166280420494331],119.54880749033191,None,[1 1 3 3 0 2 3 1],space,0,2.4714697522676943,0.002612693976061564,None,119.56545477520194,None,1,122.03833490589932,None,None,122.5379242320349,None,,,,,,,,,,,,,,,,,,,,,,,,,,,,,,,,,,,,,,,,,,,,,,18_GV,18,28,F,2022-12-12_09h43.59.205,dynamic target,2022.1.3,120.09575164648815,
1,5,1,2,mix,0,7,7,7,,,,,,,None,123.57038157871966,None,122.59622180044789,123.59534593139415,123.07080107221009,None,1,[1.216189883023162],[1.724581356400904],123.57038157871966,None,[1 3 1 0 3 0 2 2],space,0,3.2267668197264356,0.0026854959805859835,None,124.79433946773088,None,1,128.02490598278519,None,None,128.52447734895517,None,,,,,,,,,,,,,,,,,,,,,,,,,,,,,,,,,,,,,,,,,,,,,,18_GV,18,28,F,2022-12-12_09h43.59.205,dynamic target,2022.1.3,120.09575164648815,
1,6,3,2,mix,0,8,8,8,,,,,,,None,129.54860463893087,None,128.55778939759057,None,129.04073737205908,None,1,[0.009347200137654],[0.5164779480483048],129.54860463893087,None,[0 3 2 2 3 1 1 0],space,0,1.8076437535496552,0.0028933184435118164,None,129.55692122566506,None,0,131.37205769254206,None,None,131.87162713442953,None,,,,,,,,,,,,,,,,,,,,,,,,,,,,,,,,,,,,,,,,,,,,,,18_GV,18,28,F,2022-12-12_09h43.59.205,dynamic target,2022.1.3,120.09575164648815,
1,4,1,0,mix,0,9,9,9,,,,,,,None,132.90410404464865,None,131.92160057933734,None,132.40450333317722,None,1,[0.009333088735729689],[0.5175346996161352],132.90410404464865,None,[0 3 1 3 3 1 1 2],space,0,2.795451502376636,0.002632578224165627,None,132.92071348530453,None,1,135.72666022245994,None,None,136.2262338336253,None,,,,,,,,,,,,,,,,,,,,,,,,,,,,,,,,,,,,,,,,,,,,,,18_GV,18,28,F,2022-12-12_09h43.59.205,dynamic target,2022.1.3,120.09575164648815,
1,5,4,2,mix,0,10,10,10,,,,,,,None,137.25868861460003,None,136.27620086425895,None,136.75909143097942,None,1,[0.00955566402808472],[0.5173288014352693],137.25868861460003,None,[2 1 3 0 3 0 0 0],space,0,2.4247103394818623,0.0026088454110322346,None,137.27534455873956,None,1,139.69827064770698,None,None,140.19784297601777,None,,,,,,,,,,,,,,,,,,,,,,,,,,,,,,,,,,,,,,,,,,,,,,18_GV,18,28,F,2022-12-12_09h43.59.205,dynamic target,2022.1.3,120.09575164648815,
1,6,2,2,mix,0,11,11,11,,,,,,,None,141.23029743627876,None,140.2561953864697,None,140.73072398547038,None,1,[0.0086679285682294],[0.5175032696761264],141.23029743627876,None,[2 1 1 0 0 3 2 0],space,0,2.084739088255901,0.0026235982404614333,None,141.24694119329843,None,1,143.33683884073525,None,None,143.83638968122963,None,,,,,,,,,,,,,,,,,,,,,,,,,,,,,,,,,,,,,,,,,,,,,,18_GV,18,28,F,2022-12-12_09h43.59.205,dynamic target,2022.1.3,120.09575164648815,
0,2,4,0,mix,0,12,12,12,,,,,,,None,144.86053861937899,None,143.86969884344217,None,144.36095298145074,None,1,[0.00866087286703987],[0.5175648467020437],144.86053861937899,None,[1 2 3 2 3 1 0 2],space,0,1.7987567775389834,0.002428925038657326,None,144.8771826971124,None,0,146.68395847912416,None,None,147.18355614381548,None,,,,,,,,,,,,,,,,,,,,,,,,,,,,,,,,,,,,,,,,,,,,,,18_GV,18,28,F,2022-12-12_09h43.59.205,dynamic target,2022.1.3,120.09575164648815,
0,3,2,2,mix,0,13,13,13,,,,,,,None,148.20765954062244,None,147.22517499741798,None,147.70809859764722,None,1,[0.008565620904846583],[0.5172422087421182],148.20765954062244,None,[2 0 3 1 3 1 0 3],space,0,1.7631476171868599,0.002667215300789394,None,148.22433504829633,None,1,149.9978108084356,None,None,150.49736645963534,None,,,,,,,,,,,,,,,,,,,,,,,,,,,,,,,,,,,,,,,,,,,,,,18_GV,18,28,F,2022-12-12_09h43.59.205,dynamic target,2022.1.3,120.09575164648815,
1,4,1,2,mix,0,14,14,14,,,,,,,None,151.52150128638232,None,150.53069550609598,None,151.02193585341593,None,1,[0.00943122712078548],[0.5176334794291506],151.52150128638232,None,[2 3 1 3 1 1 3 2],space,0,1.2329001480989064,0.002480239226770209,None,151.5381655690776,None,1,152.7704466194532,None,None,153.27000227065295,None,,,,,,,,,,,,,,,,,,,,,,,,,,,,,,,,,,,,,,,,,,,,,,18_GV,18,28,F,2022-12-12_09h43.59.205,dynamic target,2022.1.3,120.09575164648815,
1,5,2,2,mix,0,15,15,15,,,,,,,None,154.30246763517926,None,153.3199644905817,None,153.80290412649447,None,1,[0.008648044320125337],[0.517701791442505],154.30246763517926,None,[2 1 1 3 1 1 2 1],space,0,1.380551914622174,0.0023946086748765083,None,154.3191075436348,None,1,155.70125552990567,None,None,156.2008961702298,None,,,,,,,,,,,,,,,,,,,,,,,,,,,,,,,,,,,,,,,,,,,,,,18_GV,18,28,F,2022-12-12_09h43.59.205,dynamic target,2022.1.3,120.09575164648815,
0,6,2,2,mix,0,16,16,16,,,,,,,None,157.2249739099425,None,156.24251887239643,None,156.7254216262363,None,1,[0.008649968602185254],[0.5173759463459646],157.2249739099425,None,[0 3 2 3 2 2 2 0],space,0,2.0269987598576336,0.0027964629134658026,None,157.24163979620562,None,1,159.27323522488132,None,None,159.77280338391424,None,,,,,,,,,,,,,,,,,,,,,,,,,,,,,,,,,,,,,,,,,,,,,,18_GV,18,28,F,2022-12-12_09h43.59.205,dynamic target,2022.1.3,120.09575164648815,
1,7,4,2,mix,0,17,17,17,,,,,,,None,160.8052411670642,None,159.83112340228445,160.8302298939784,160.30566226412293,None,1,[0.06644000761980351],[0.5664461011797357],160.8052411670642,None,[3 2 0 0 1 3 0 1],space,0,1.8357020310731968,0.003035073889350315,None,160.87185949148898,None,1,162.71194587892523,None,None,163.21153937433868,None,,,,,,,,,,,,,,,,,,,,,,,,,,,,,,,,,,,,,,,,,,,,,,18_GV,18,28,F,2022-12-12_09h43.59.205,dynamic target,2022.1.3,120.09575164648815,
1,8,2,2,mix,0,18,18,18,,,,,,,None,164.24397395035203,None,163.26988569123114,None,163.74440787595813,None,1,[0.00864195076019314],[0.5172332287593235],164.24397395035203,None,[1 3 0 0 0 3 0 0],space,0,1.422908570040363,0.0028881870248369523,None,164.26062476307288,None,0,165.6927453924668,None,None,166.19231098579016,None,,,,,,,,,,,,,,,,,,,,,,,,,,,,,,,,,,,,,,,,,,,,,,18_GV,18,28,F,2022-12-12_09h43.59.205,dynamic target,2022.1.3,120.09575164648815,
0,7,1,1,mix,0,19,19,19,,,,,,,None,167.2247654460516,None,166.25063100416082,None,166.72519456095233,None,1,[0.00863714005527072],[0.5172040438146723],167.2247654460516,None,[0 0 3 1 2 2 2 3],space,0,2.1699539952842315,0.00294912262370417,None,167.24142010733658,None,1,169.42288952760782,None,None,169.92246474234193,None,,,,,,,,,,,,,,,,,,,,,,,,,,,,,,,,,,,,,,,,,,,,,,18_GV,18,28,F,2022-12-12_09h43.59.205,dynamic target,2022.1.3,120.09575164648815,
1,8,2,2,mix,0,20,20,20,,,,,,,None,170.94659090981986,None,169.95577903597314,170.95491888188963,170.44700912045573,None,2,"[0.533278213342328, 0.6834972928554635]","[0.5422928333960044, 1.1912303410531422]",170.94659090981986,None,[3 2 3 1 0 2 2 3],space,0,2.0293948117441687,0.0027271887588540267,None,171.6376756468635,None,1,173.66925664342352,None,None,174.1688725887942,None,,,,,,,,,,,,,,,,,,,,,,,,,,,,,,,,,,,,,,,,,,,,,,18_GV,18,28,F,2022-12-12_09h43.59.205,dynamic target,2022.1.3,120.09575164648815,
1,1,2,2,mix,0,21,21,21,,,,,,,None,175.20129786411098,None,174.22713295442054,None,174.70171222618274,None,1,[0.008657024302920036],[0.5170549119543466],175.20129786411098,None,[3 3 3 0 1 0 0 2],space,0,2.0166227102422454,0.002939821927157027,None,175.21793584828447,None,1,177.23289778277785,None,None,177.7324694696616,None,,,,,,,,,,,,,,,,,,,,,,,,,,,,,,,,,,,,,,,,,,,,,,18_GV,18,28,F,2022-12-12_09h43.59.205,dynamic target,2022.1.3,120.09575164648815,
1,7,1,0,mix,0,22,22,22,,,,,,,None,178.76493900346577,None,177.79080392014748,None,178.26533604699853,None,1,[0.008785951201389253],[0.5169003279615936],178.76493900346577,None,[2 2 3 1 3 2 0 2],space,0,2.4690105197869343,0.0031319294203058234,None,178.78156929051056,None,1,181.25444942120794,None,None,181.7540724222798,None,,,,,,,,,,,,,,,,,,,,,,,,,,,,,,,,,,,,,,,,,,,,,,18_GV,18,28,F,2022-12-12_09h43.59.205,dynamic target,2022.1.3,120.09575164648815,
1,8,2,2,mix,0,23,23,23,,,,,,,None,182.78648679333128,None,181.81232316649584,None,182.28692007750988,None,1,[0.008606351541857293],[0.5169298336199972],182.78648679333128,None,[1 2 0 0 0 1 0 1],space,0,0.9274970206274702,0.002968686158055789,None,182.80313664391088,None,1,183.73565784468838,None,None,184.23525037796102,None,,,,,,,,,,,,,,,,,,,,,,,,,,,,,,,,,,,,,,,,,,,,,,18_GV,18,28,F,2022-12-12_09h43.59.205,dynamic target,2022.1.3,120.09575164648815,
1,1,2,2,mix,0,24,24,24,,,,,,,None,185.2760236699522,None,184.30186244846936,None,184.77645647306053,None,1,[0.008773764081979607],[0.5088613189159332],185.2760236699522,None,[2 3 3 3 3 1 0 1],space,0,2.7655843997104057,0.002891714875204343,None,185.2843425016822,None,1,188.04865707561703,None,None,188.54823613891526,None,,,,,,,,,,,,,,,,,,,,,,,,,,,,,,,,,,,,,,,,,,,,,,18_GV,18,28,F,2022-12-12_09h43.59.205,dynamic target,2022.1.3,120.09575164648815,
1,2,3,2,mix,0,25,25,25,,,,,,,None,189.5806803363389,None,188.59817943673715,None,189.08110688553006,None,1,[0.008673701413954404],[0.51736953207228],189.5806803363389,None,[3 1 2 0 3 0 3 3],space,0,1.9555738995445608,0.002082233552755497,None,189.59734173261086,None,1,191.55399599621023,None,None,192.05357281451265,None,,,,,,,,,,,,,,,,,,,,,,,,,,,,,,,,,,,,,,,,,,,,,,18_GV,18,28,F,2022-12-12_09h43.59.205,dynamic target,2022.1.3,120.09575164648815,
0,3,1,2,mix,0,26,26,26,,,,,,,None,193.08602342620998,None,192.1035356758689,None,192.5864791603458,None,1,[0.008581335875078366],[0.5174843475688249],193.08602342620998,None,[0 2 0 3 3 1 1 2],space,0,2.610719782574961,0.0026495760484976927,None,193.10269412317848,None,1,195.71710231343604,None,None,196.21668073530677,None,,,,,,,,,,,,,,,,,,,,,,,,,,,,,,,,,,,,,,,,,,,,,,18_GV,18,28,F,2022-12-12_09h43.59.205,dynamic target,2022.1.3,120.09575164648815,
1,4,3,2,mix,0,27,27,27,,,,,,,None,197.2491210841663,None,196.2749677201682,None,196.74956238618688,None,1,[0.008637140054815973],[0.51742565696577],197.2491210841663,None,[1 2 1 1 1 2 3 0],space,0,2.4150206171361788,0.0027336030325386673,None,197.265773500455,None,1,199.68039502945112,None,None,200.1799577363516,None,,,,,,,,,,,,,,,,,,,,,,,,,,,,,,,,,,,,,,,,,,,,,,18_GV,18,28,F,2022-12-12_09h43.59.205,dynamic target,2022.1.3,120.09575164648815,
1,8,3,0,mix,0,28,28,28,,,,,,,None,201.21243432585652,None,200.23829828039743,None,200.7128355386676,None,1,[0.008792365475073893],[0.5179840194791723],201.21243432585652,None,[3 1 2 0 2 3 3 0],space,0,1.9074331729484584,0.0021669019638466125,None,201.2290636507605,None,1,203.1357580997842,None,None,203.6353496709156,None,,,,,,,,,,,,,,,,,,,,,,,,,,,,,,,,,,,,,,,,,,,,,,18_GV,18,28,F,2022-12-12_09h43.59.205,dynamic target,2022.1.3,120.09575164648815,
0,1,1,2,mix,0,29,29,29,,,,,,,None,204.66781182830528,None,203.68531862583177,None,204.16823677392813,None,1,[0.00863265006319125],[0.5169291921924923],204.66781182830528,None,[3 0 1 0 1 1 1 2],space,0,1.7012219752946294,0.0030504681458296545,None,204.68443634250434,None,1,206.38299755680328,None,None,206.88257886509686,None,,,,,,,,,,,,,,,,,,,,,,,,,,,,,,,,,,,,,,,,,,,,,,18_GV,18,28,F,2022-12-12_09h43.59.205,dynamic target,2022.1.3,120.09575164648815,
0,2,3,2,mix,0,30,30,30,,,,,,,None,207.91502915608044,None,206.94093544482666,None,207.4154553845583,None,1,[0.008642912901450472],[0.5170536290997916],207.91502915608044,None,[0 3 2 1 0 0 0 0],space,0,1.1891054125499068,0.002947519055396697,None,207.93167836523253,None,1,209.12231859311896,None,None,209.62193389706258,None,,,,,,,,,,,,,,,,,,,,,,,,,,,,,,,,,,,,,,,,,,,,,,18_GV,18,28,F,2022-12-12_09h43.59.205,dynamic target,2022.1.3,120.09575164648815,
1,3,4,2,mix,0,31,31,31,,,,,,,None,210.65435115453693,None,209.68022120263777,None,210.15478411800223,None,1,[0.008676908551024098],[0.5173348949952015],210.65435115453693,None,[2 0 3 3 0 0 1 0],space,0,4.145682704866886,0.0027858793614541355,None,210.67101030581307,None,1,214.8174690174551,None,None,215.3170349314922,None,,,,,,,,,,,,,,,,,,,,,,,,,,,,,,,,,,,,,,,,,,,,,,18_GV,18,28,F,2022-12-12_09h43.59.205,dynamic target,2022.1.3,120.09575164648815,
1,4,3,2,mix,0,32,32,32,,,,,,,None,216.34950222030056,None,215.37537996552965,None,215.84992043093644,None,1,[0.008623349367098854],[0.5174865925646372],216.34950222030056,None,[3 2 2 2 3 1 3 0],space,0,1.9707292243861048,0.002725585190091806,None,216.36614501517943,None,1,218.33946388218783,None,None,218.83903556907111,None,,,,,,,,,,,,,,,,,,,,,,,,,,,,,,,,,,,,,,,,,,,,,,18_GV,18,28,F,2022-12-12_09h43.59.205,dynamic target,2022.1.3,120.09575164648815,
0,5,3,2,mix,0,33,33,33,,,,,,,None,219.86315211513875,None,218.88070990614005,None,219.36358123003947,None,1,[0.008637460768568417],[0.5173454785463036],219.86315211513875,None,[2 1 1 0 3 1 3 2],space,0,1.62498031625546,0.0027772200924118806,None,219.87980517285496,None,1,221.50341367638566,None,None,222.00301807606442,None,,,,,,,,,,,,,,,,,,,,,,,,,,,,,,,,,,,,,,,,,,,,,,18_GV,18,28,F,2022-12-12_09h43.59.205,dynamic target,2022.1.3,120.09575164648815,
1,3,1,0,mix,0,34,34,34,,,,,,,None,223.0354388613896,None,222.06135541297317,None,222.53587054199943,None,1,[0.008635215773210803],[0.5174760090135351],223.0354388613896,None,[1 2 3 0 1 0 1 2],space,0,2.5637862222620242,0.0025976204328799213,None,223.0520999369478,None,1,225.61658327042005,None,None,226.11614341161098,None,,,,,,,,,,,,,,,,,,,,,,,,,,,,,,,,,,,,,,,,,,,,,,18_GV,18,28,F,2022-12-12_09h43.59.205,dynamic target,2022.1.3,120.09575164648815,
0,2,3,1,mix,0,35,35,35,,,,,,,None,227.14863796108193,None,226.17449485992165,None,226.64906002028192,None,1,[0.008075249691501085],[0.5168044345718954],227.14863796108193,None,[0 3 2 1 3 1 0 0],space,0,2.370472204444468,0.0026277675183337124,None,227.1652608717127,None,1,229.5382351639455,None,None,230.03778440087157,None,,,,,,,,,,,,,,,,,,,,,,,,,,,,,,,,,,,,,,,,,,,,,,18_GV,18,28,F,2022-12-12_09h43.59.205,dynamic target,2022.1.3,120.09575164648815,
1,3,4,2,mix,0,36,36,36,,,,,,,None,231.07025537788726,None,230.07942153515387,None,230.5706862567131,None,1,[0.008993452951017389],[0.5092641352948704],231.07025537788726,None,[1 0 2 0 3 0 2 2],space,0,1.7370848201662739,0.0022663232039121795,None,231.07857837889514,None,1,232.81876662499508,None,None,233.31831586192115,None,,,,,,,,,,,,,,,,,,,,,,,,,,,,,,,,,,,,,,,,,,,,,,18_GV,18,28,F,2022-12-12_09h43.59.205,dynamic target,2022.1.3,120.09575164648815,
1,2,4,1,mix,0,37,37,37,,,,,,,None,234.35078924428944,None,233.37668751519368,None,233.851212586344,None,1,[0.008673059986904263],[0.516900648675346],234.35078924428944,None,[0 3 3 3 2 3 3 1],space,0,1.44095769439582,0.003255404185892985,None,234.3674301148858,None,1,235.80788833776023,None,None,236.30745200680153,None,,,,,,,,,,,,,,,,,,,,,,,,,,,,,,,,,,,,,,,,,,,,,,18_GV,18,28,F,2022-12-12_09h43.59.205,dynamic target,2022.1.3,120.09575164648815,
0,3,1,2,mix,0,38,38,38,,,,,,,None,237.33158009856152,None,236.340767262574,None,236.8320079306077,None,1,[0.008754521261380432],[0.517635724424963],237.33158009856152,None,[2 2 1 3 2 3 1 1],space,0,2.0106814893624687,0.002485691359197517,None,237.34821936559,None,1,239.36318899721164,None,None,239.86273887556476,None,,,,,,,,,,,,,,,,,,,,,,,,,,,,,,,,,,,,,,,,,,,,,,18_GV,18,28,F,2022-12-12_09h43.59.205,dynamic target,2022.1.3,120.09575164648815,
1,2,3,1,mix,0,39,39,39,,,,,,,None,240.89520327795026,None,239.9210447825335,None,240.39562309215444,None,1,[0.008609558678926987],[0.5171164889807187],240.89520327795026,None,[1 3 3 0 2 0 2 0],space,0,1.7912354003692599,0.002854512088561023,None,240.91185697709398,None,1,242.70199445421895,None,None,243.2015693482393,None,,,,,,,,,,,,,,,,,,,,,,,,,,,,,,,,,,,,,,,,,,,,,,18_GV,18,28,F,2022-12-12_09h43.59.205,dynamic target,2022.1.3,120.09575164648815,
1,1,3,1,mix,0,40,40,40,,,,,,,None,244.23402701563737,None,243.25152771960393,None,243.73444554698654,None,1,[0.00866087286703987],[0.5175706195482235],244.23402701563737,None,[0 0 1 2 2 0 3 2],space,0,1.507812064087375,0.0023776108500896953,None,244.2506534541185,None,1,245.7577351328364,None,None,246.25728789761283,None,,,,,,,,,,,,,,,,,,,,,,,,,,,,,,,,,,,,,,,,,,,,,,18_GV,18,28,F,2022-12-12_09h43.59.205,dynamic target,2022.1.3,120.09575164648815,
1,2,4,2,mix,0,41,41,41,,,,,,,None,247.28972985004066,None,246.31558771102164,None,246.790171472775,None,1,[0.008664721431159705],[0.5175029489619192],247.28972985004066,None,[1 0 1 2 0 2 2 3],space,0,2.6126421403596396,0.002686458121843316,None,247.30640215057747,None,1,249.92081835867702,None,None,250.42042949334277,None,,,,,,,,,,,,,,,,,,,,,,,,,,,,,,,,,,,,,,,,,,,,,,18_GV,18,28,F,2022-12-12_09h43.59.205,dynamic target,2022.1.3,120.09575164648815,
1,3,4,2,mix,0,42,42,42,,,,,,,None,251.44453128658142,None,250.47868921754207,None,250.94498926571305,None,1,[0.008969399425041047],[0.5177033950108125],251.44453128658142,None,[3 3 1 3 3 2 3 1],space,0,2.5534037583729514,0.0023663858714826347,None,251.4611885135755,None,1,254.01733617784976,None,None,254.51690561973723,None,,,,,,,,,,,,,,,,,,,,,,,,,,,,,,,,,,,,,,,,,,,,,,18_GV,18,28,F,2022-12-12_09h43.59.205,dynamic target,2022.1.3,120.09575164648815,
1,4,1,2,mix,0,43,43,43,,,,,,,None,255.54934564788346,None,254.56687265037135,None,255.0497786113483,None,1,[0.00863425363195347],[0.5173169350291573],255.54934564788346,None,[0 2 0 3 2 2 0 0],space,0,3.1043975538459563,0.0022454768150055315,None,255.56603847409542,None,1,258.6716838045363,None,None,259.17127441352693,None,,,,,,,,,,,,,,,,,,,,,,,,,,,,,,,,,,,,,,,,,,,,,,18_GV,18,28,F,2022-12-12_09h43.59.205,dynamic target,2022.1.3,120.09575164648815,
1,3,4,1,mix,0,44,44,44,,,,,,,None,260.2037086688265,None,259.2212119385026,None,259.70413650087266,None,1,[0.009027448601045762],[0.5173336121406464],260.2037086688265,None,[1 3 3 3 0 2 1 1],space,0,1.2020725079678414,0.0025655490649114654,None,260.220372630808,None,1,261.42768131066714,None,None,261.9272469039905,None,,,,,,,,,,,,,,,,,,,,,,,,,,,,,,,,,,,,,,,,,,,,,,18_GV,18,28,F,2022-12-12_09h43.59.205,dynamic target,2022.1.3,120.09575164648815,
1,4,3,2,mix,0,45,45,45,,,,,,,None,262.95968629070876,None,261.97720976534674,None,262.4601279134431,None,1,[0.008712507768905198],[0.5172066095237824],262.95968629070876,None,[0 3 0 0 0 1 3 1],space,0,2.142163192967473,0.0028179507294225914,None,262.97634191413454,None,1,265.116183981891,None,None,265.61577394945414,None,,,,,,,,,,,,,,,,,,,,,,,,,,,,,,,,,,,,,,,,,,,,,,18_GV,18,28,F,2022-12-12_09h43.59.205,dynamic target,2022.1.3,120.09575164648815,
1,5,1,2,mix,0,46,46,46,,,,,,,None,266.64823642755755,None,265.66572205798093,None,266.14863379180406,None,1,[0.008610841533482017],[0.5172499058708127],266.64823642755755,None,[2 1 2 0 2 2 1 3],space,0,2.516956573180778,0.002840079973339016,None,266.66486895959815,None,1,269.17938862993014,None,None,269.6789632032368,None,,,,,,,,,,,,,,,,,,,,,,,,,,,,,,,,,,,,,,,,,,,,,,18_GV,18,28,F,2022-12-12_09h43.59.205,dynamic target,2022.1.3,120.09575164648815,
1,6,2,2,mix,0,47,47,47,,,,,,,None,270.7114134942203,None,269.7372691102055,None,270.2118467783989,None,1,[0.008629442926576303],[0.5175382274665026],270.7114134942203,None,[2 0 1 3 0 1 3 1],space,0,1.6214126973045495,0.0026268053775311273,None,270.72807681477434,None,1,272.35166767905275,None,None,272.85125476019255,None,,,,,,,,,,,,,,,,,,,,,,,,,,,,,,,,,,,,,,,,,,,,,,18_GV,18,28,F,2022-12-12_09h43.59.205,dynamic target,2022.1.3,120.09575164648815,
0,7,1,2,mix,0,48,48,48,,,,,,,None,273.88369799547536,None,272.90961005706777,None,273.3841229410982,None,1,[0.008615652238404437],[0.5170183505952082],273.88369799547536,None,[1 3 0 2 2 1 1 0],space,0,0.8817424037938508,0.003085746650413057,None,273.9003593917473,None,0,274.7912356007578,None,None,275.2908271718892,None,,,,,,,,,,,,,,,,,,,,,,,,,,,,,,,,,,,,,,,,,,,,,,18_GV,18,28,F,2022-12-12_09h43.59.205,dynamic target,2022.1.3,120.09575164648815,
0,8,2,2,mix,0,49,49,49,,,,,,,None,276.3316415152311,None,275.34912089173804,None,275.8320262112875,None,1,[0.008634574345705914],[0.5089745308441707],276.3316415152311,None,[3 2 3 1 0 0 2 1],space,0,2.8572337852551755,0.0027425830153333663,None,276.33995938481985,None,1,279.204156064407,None,None,279.70372486486747,None,,,,,,,,,,,,,,,,,,,,,,,,,,,,,,,,,,,,,,,,,,,,,,18_GV,18,28,F,2022-12-12_09h43.59.205,dynamic target,2022.1.3,120.09575164648815,
0,1,1,2,mix,0,50,50,50,,,,,,,None,280.73620722721853,None,279.7620365446819,None,280.2366094021704,None,1,[0.008683322824708739],[0.5171989123959975],280.73620722721853,None,[1 1 1 3 3 1 2 0],space,0,1.2774681243249688,0.00280031147713089,None,280.7528259685714,None,1,282.03505785354037,None,None,282.53465615965877,None,,,,,,,,,,,,,,,,,,,,,,,,,,,,,,,,,,,,,,,,,,,,,,18_GV,18,28,F,2022-12-12_09h43.59.205,dynamic target,2022.1.3,120.09575164648815,
0,2,4,2,mix,0,51,51,51,,,,,,,None,283.5670952256637,None,282.5845946467757,None,283.0675307548381,None,1,[0.008649006460927922],[0.5173374607047663],283.5670952256637,None,[2 0 1 1 3 3 0 3],space,0,1.5022666038858006,0.0028022357591908076,None,283.5837338512647,None,1,285.0907921178841,None,None,285.59037791616936,None,,,,,,,,,,,,,,,,,,,,,,,,,,,,,,,,,,,,,,,,,,,,,,18_GV,18,28,F,2022-12-12_09h43.59.205,dynamic target,2022.1.3,120.09575164648815,
1,3,1,2,mix,0,52,52,52,,,,,,,None,286.614478426553,None,285.62368804052267,None,286.11491972857357,None,1,[0.008970040852545935],[0.5173278392944667],286.614478426553,None,[2 2 3 3 2 1 3 3],space,0,3.286134128611593,0.0025405333981325384,None,286.63115393422686,None,1,289.9200201023332,None,None,290.41957286710965,None,,,,,,,,,,,,,,,,,,,,,,,,,,,,,,,,,,,,,,,,,,,,,,18_GV,18,28,F,2022-12-12_09h43.59.205,dynamic target,2022.1.3,120.09575164648815,
0,4,3,2,mix,0,53,53,53,,,,,,,None,291.4437028831517,None,290.46122347136634,None,290.94412847020203,None,1,[0.00871763918803481],[0.5173775499142721],291.4437028831517,None,[1 2 1 2 1 2 1 0],space,0,1.9923790012012432,0.0025751704752110527,None,291.46034952659465,None,1,293.4503419769944,None,None,293.94988319607853,None,,,,,,,,,,,,,,,,,,,,,,,,,,,,,,,,,,,,,,,,,,,,,,18_GV,18,28,F,2022-12-12_09h43.59.205,dynamic target,2022.1.3,120.09575164648815,
0,5,1,2,mix,0,54,54,54,,,,,,,None,294.98236331343423,None,294.008188140906,None,294.48278376906546,None,1,[0.008584863725445757],[0.5174198841195903],294.98236331343423,None,[2 1 2 2 2 3 3 2],space,0,1.397434603331476,0.002606921129881812,None,294.99900674974015,None,1,296.3978231879837,None,None,296.8973871777388,None,,,,,,,,,,,,,,,,,,,,,,,,,,,,,,,,,,,,,,,,,,,,,,18_GV,18,28,F,2022-12-12_09h43.59.205,dynamic target,2022.1.3,120.09575164648815,
0,5,4,0,mix,0,55,55,55,,,,,,,None,297.92983971371814,None,296.95568634972005,None,297.43026786647806,None,1,[0.008594805849497789],[0.5173105207554727],297.92983971371814,None,[3 0 0 0 3 2 0 2],space,0,2.753959170319831,0.0027977457680208317,None,297.94647930145993,None,1,300.7024790525861,None,None,301.20203213807633,None,,,,,,,,,,,,,,,,,,,,,,,,,,,,,,,,,,,,,,,,,,,,,,18_GV,18,28,F,2022-12-12_09h43.59.205,dynamic target,2022.1.3,120.09575164648815,
0,6,4,2,mix,0,56,56,56,,,,,,,None,302.23450584115835,None,301.2603784549683,None,301.73493046606745,None,1,[0.008720525611352059],[0.517203081673415],302.23450584115835,None,[1 1 0 2 1 1 2 3],space,0,2.1768121365689694,0.002735848028351029,None,302.2511326003528,None,1,304.43261100060727,None,None,304.9321862153414,None,,,,,,,,,,,,,,,,,,,,,,,,,,,,,,,,,,,,,,,,,,,,,,18_GV,18,28,F,2022-12-12_09h43.59.205,dynamic target,2022.1.3,120.09575164648815,
0,7,1,2,mix,0,57,57,57,,,,,,,None,305.96464612773525,None,304.990470955207,None,305.46505375481956,None,1,[0.008625915076208912],[0.5171848009940732],305.96464612773525,None,[2 0 1 0 0 1 2 2],space,0,2.143298840100215,0.0026447653435752727,None,305.98129918545146,None,1,308.12946024529447,None,None,308.62902808361366,None,,,,,,,,,,,,,,,,,,,,,,,,,,,,,,,,,,,,,,,,,,,,,,18_GV,18,28,F,2022-12-12_09h43.59.205,dynamic target,2022.1.3,120.09575164648815,
1,8,2,2,mix,0,58,58,58,,,,,,,None,309.66146747033235,None,308.6789963971023,None,309.1619158280537,None,1,[0.008634895059003611],[0.517057156950159],309.66146747033235,None,[2 3 1 1 2 3 3 0],space,0,1.5026335003331042,0.0030517510003846837,None,309.6781628622539,None,0,311.1851746253901,None,None,311.6847597822483,None,,,,,,,,,,,,,,,,,,,,,,,,,,,,,,,,,,,,,,,,,,,,,,18_GV,18,28,F,2022-12-12_09h43.59.205,dynamic target,2022.1.3,120.09575164648815,
1,1,4,2,mix,0,59,59,59,,,,,,,None,312.70888787400827,None,311.734770750656,None,312.20930640535744,None,1,[0.008689416384640936],[0.5177912705585186],312.70888787400827,None,[3 3 0 2 0 3 0 3],space,0,1.8296761417818743,0.002368310153542552,None,312.72554349743405,None,0,314.5572958192406,None,space,315.0651696607424,None,1.367471607276002,,,,,,,,,,,,,,,,,,,,,,,,,,,,,,,,,,,,,,,,,,,,,18_GV,18,28,F,2022-12-12_09h43.59.205,dynamic target,2022.1.3,120.09575164648815,
0,2,2,2,mix,0,60,60,60,,,,,,,None,317.4798242232473,None,316.5056945920619,None,316.9802395474603,None,1,[0.008707697063982778],[0.5172370773234434],317.4798242232473,None,[2 2 0 0 0 0 1 1],space,0,1.4755457023979943,0.0027515629981280654,None,317.4964792052456,None,1,318.97853110569895,None,None,319.4781076032872,None,,,,,,,,,,,,,,,,,,,,,,,,,,,,,,,,,,,,,,,,,,,,,,18_GV,18,28,F,2022-12-12_09h43.59.205,dynamic target,2022.1.3,120.09575164648815,
1,3,2,2,mix,0,61,61,61,,,,,,,None,320.5105514799975,None,319.5364000402815,None,320.0109841227486,None,1,[0.008643875042253057],[0.5175642052749936],320.5105514799975,None,[1 2 0 1 3 3 1 3],space,0,1.0197971342240635,0.002471900671025651,None,320.52722185625225,None,0,321.5513533155058,None,None,322.0509173052609,None,,,,,,,,,,,,,,,,,,,,,,,,,,,,,,,,,,,,,,,,,,,,,,18_GV,18,28,F,2022-12-12_09h43.59.205,dynamic target,2022.1.3,120.09575164648815,
0,4,4,2,mix,0,62,62,62,,,,,,,None,323.08336984124026,None,322.1092495107514,None,322.5837976732864,None,1,[0.008660872867494618],[0.5177207135493518],323.08336984124026,None,[2 1 0 0 1 0 2 1],space,0,1.5508518396391082,0.0025860747405204165,None,323.1000142396874,None,1,324.64867644672313,None,None,325.14825037860226,None,,,,,,,,,,,,,,,,,,,,,,,,,,,,,,,,,,,,,,,,,,,,,,18_GV,18,28,F,2022-12-12_09h43.59.205,dynamic target,2022.1.3,120.09575164648815,
0,5,3,2,mix,0,63,63,63,,,,,,,None,326.17238199821304,None,325.1815486365499,None,325.672802774558,None,1,[0.009207048260577722],[0.5174577283337385],326.17238199821304,None,[1 3 0 2 1 2 1 1],space,0,2.0775977567936934,0.0025424576806472032,None,326.1890385837796,None,1,328.2705806777708,None,None,328.77016807962434,None,,,,,,,,,,,,,,,,,,,,,,,,,,,,,,,,,,,,,,,,,,,,,,18_GV,18,28,F,2022-12-12_09h43.59.205,dynamic target,2022.1.3,120.09575164648815,
1,5,1,0,mix,0,64,64,64,,,,,,,None,329.79428943639687,None,328.811808741757,None,329.2947246448575,None,1,[0.007868389369377837],[0.5168377887948736],329.79428943639687,None,[2 3 3 3 3 1 1 1],space,0,2.967916565432006,0.002493067773684743,None,329.8109556433742,None,1,332.7834082627387,None,None,333.28299309888314,None,,,,,,,,,,,,,,,,,,,,,,,,,,,,,,,,,,,,,,,,,,,,,,18_GV,18,28,F,2022-12-12_09h43.59.205,dynamic target,2022.1.3,120.09575164648815,
0,5,3,0,mix,0,65,65,65,,,,,,,None,334.3071179835065,None,333.3246709638024,None,333.8075307420095,None,1,[0.008640988618935808],[0.5171209789718887],334.3071179835065,None,[1 3 3 2 2 2 2 0],space,0,1.799533225353116,0.003060410269881686,None,334.32378996332955,None,1,336.12222430329757,None,None,336.6218232508435,None,,,,,,,,,,,,,,,,,,,,,,,,,,,,,,,,,,,,,,,,,,,,,,18_GV,18,28,F,2022-12-12_09h43.59.205,dynamic target,2022.1.3,120.09575164648815,
1,6,1,2,mix,0,66,66,66,,,,,,,None,337.65424339474157,None,336.6717707179432,None,337.1546693025052,None,1,[0.008655100021314865],[0.5170132191765333],337.65424339474157,None,[1 3 0 0 3 2 2 2],space,0,1.0757671231212953,0.0030286596161204216,None,337.6708900381841,None,0,338.7533176226393,None,None,339.25289476165506,None,,,,,,,,,,,,,,,,,,,,,,,,,,,,,,,,,,,,,,,,,,,,,,18_GV,18,28,F,2022-12-12_09h43.59.205,dynamic target,2022.1.3,120.09575164648815,
0,7,1,2,mix,0,67,67,67,,,,,,,None,340.2853450526386,None,339.31120259290583,None,339.78576743255235,None,1,[0.008621104370831745],[0.5174647840344733],340.2853450526386,None,[0 0 3 2 2 1 0 2],space,0,2.8283259371992244,0.0024500921408616705,None,340.3020276160132,None,1,343.13292170801833,None,None,343.63247479350855,None,,,,,,,,,,,,,,,,,,,,,,,,,,,,,,,,,,,,,,,,,,,,,,18_GV,18,28,F,2022-12-12_09h43.59.205,dynamic target,2022.1.3,120.09575164648815,
0,8,1,2,mix,0,68,68,68,,,,,,,None,344.66491353879974,None,343.69077268263527,None,344.1653481058329,None,1,[0.009223404657859646],[0.5175940316466949],344.66491353879974,None,[0 0 3 0 0 0 1 1],space,0,2.3366250450376356,0.002545985531014594,None,344.6815967436014,None,1,347.0212604304106,None,None,347.5208292308706,None,,,,,,,,,,,,,,,,,,,,,,,,,,,,,,,,,,,,,,,,,,,,,,18_GV,18,28,F,2022-12-12_09h43.59.205,dynamic target,2022.1.3,120.09575164648815,
0,7,1,1,mix,0,69,69,69,,,,,,,None,348.55327855971336,None,347.5791399485447,None,348.053689073221,None,1,[0.008615010810899548],[0.5175529802959318],348.55327855971336,None,[3 2 2 3 2 0 0 0],space,0,2.143712560744916,0.0021001935187996423,None,348.5699361074212,None,1,350.71808241443523,None,None,351.2176791169853,None,,,,,,,,,,,,,,,,,,,,,,,,,,,,,,,,,,,,,,,,,,,,,,18_GV,18,28,F,2022-12-12_09h43.59.205,dynamic target,2022.1.3,120.09575164648815,
1,1,3,0,mix,0,70,70,70,,,,,,,None,352.25011433442614,None,351.2759542354411,None,351.7505344693441,None,1,[0.008579732306770893],[0.5176841521902134],352.25011433442614,None,[0 3 3 0 0 0 3 0],space,0,1.1345808801984276,0.0023686308672949963,None,352.26677701355266,None,0,353.4075125896152,None,None,353.9070352073062,None,,,,,,,,,,,,,,,,,,,,,,,,,,,,,,,,,,,,,,,,,,,,,,18_GV,18,28,F,2022-12-12_09h43.59.205,dynamic target,2022.1.3,120.09575164648815,
1,2,4,2,mix,0,71,71,71,,,,,,,None,354.9394906297084,None,353.9570195564784,None,354.4399120474809,None,1,[0.008691340666700853],[0.5171472774936774],354.9394906297084,None,[3 3 3 1 1 2 0 0],space,0,2.1104930380047335,0.0029760625725430145,None,354.9561446495659,None,0,357.07100248039933,None,None,357.57057096014603,None,,,,,,,,,,,,,,,,,,,,,,,,,,,,,,,,,,,,,,,,,,,,,,18_GV,18,28,F,2022-12-12_09h43.59.205,dynamic target,2022.1.3,120.09575164648815,
1,3,3,2,mix,0,72,72,72,,,,,,,None,358.6030215718433,None,357.6288996377857,None,358.10346159100936,None,1,[0.008713149196410086],[0.5173682492172702],358.6030215718433,None,[3 1 1 0 1 1 0 1],space,0,2.9419108554461673,0.002807687892072863,None,358.61966404600844,None,1,361.5671577648309,None,None,362.0667300931417,None,,,,,,,,,,,,,,,,,,,,,,,,,,,,,,,,,,,,,,,,,,,,,,18_GV,18,28,F,2022-12-12_09h43.59.205,dynamic target,2022.1.3,120.09575164648815,
0,4,4,2,mix,0,73,73,73,,,,,,,None,363.09918872268054,None,362.1166862195105,None,362.59960885759847,None,1,[0.00941262572814594],[0.5173134071787899],363.09918872268054,None,[3 0 0 0 1 3 0 3],space,0,1.949234352277017,0.0023176373920250626,None,363.11585268466206,None,1,365.06416839264057,None,None,365.5637484180796,None,,,,,,,,,,,,,,,,,,,,,,,,,,,,,,,,,,,,,,,,,,,,,,18_GV,18,28,F,2022-12-12_09h43.59.205,dynamic target,2022.1.3,120.09575164648815,
1,3,4,1,mix,0,74,74,74,,,,,,,None,366.58786720914304,None,365.60541473730655,None,366.0882976068988,None,1,[0.00893027235633781],[0.5172559994302901],366.58786720914304,None,[2 2 0 3 0 3 1 2],space,0,2.0129511800596447,0.002899091290146316,None,366.60451641829513,None,1,368.6194668070966,None,None,369.11904009754824,None,,,,,,,,,,,,,,,,,,,,,,,,,,,,,,,,,,,,,,,,,,,,,,18_GV,18,28,F,2022-12-12_09h43.59.205,dynamic target,2022.1.3,120.09575164648815,
1,4,4,2,mix,0,75,75,75,,,,,,,None,370.14315985075245,None,369.1606749868347,370.15982734058434,369.6435777406746,None,2,"[0.009201275413943222, 0.28328735368222624]","[0.17533448833000875, 0.7833835677856769]",370.14315985075245,None,[1 0 0 0 0 1 2 3],space,0,2.014650641837761,0.0029908154019722133,None,370.42624419267713,None,0,372.44121446572626,None,None,372.94078743546413,None,,,,,,,,,,,,,,,,,,,,,,,,,,,,,,,,,,,,,,,,,,,,,,18_GV,18,28,F,2022-12-12_09h43.59.205,dynamic target,2022.1.3,120.09575164648815,
1,5,1,2,mix,0,76,76,76,,,,,,,None,373.96490462295924,None,372.99076921892765,None,373.46534816997564,None,1,[0.008638102196073305],[0.5173522135337407],373.96490462295924,None,[0 3 0 3 3 2 0 1],space,0,3.2273348036496827,0.0026194289625891543,None,373.9815624913808,None,1,377.21212515787147,None,None,377.7117183325712,None,,,,,,,,,,,,,,,,,,,,,,,,,,,,,,,,,,,,,,,,,,,,,,18_GV,18,28,F,2022-12-12_09h43.59.205,dynamic target,2022.1.3,120.09575164648815,
1,6,4,2,mix,0,77,77,77,,,,,,,None,378.7441625299948,None,377.7699947338815,None,378.2445640635192,None,1,[0.008713149196864833],[0.5170962840188622],378.7441625299948,None,[0 0 1 3 1 2 0 0],space,0,1.5681767925107124,0.002894601298521593,None,378.76080115559535,None,1,380.32614560529237,None,None,380.8257265928727,None,,,,,,,,,,,,,,,,,,,,,,,,,,,,,,,,,,,,,,,,,,,,,,18_GV,18,28,F,2022-12-12_09h43.59.205,dynamic target,2022.1.3,120.09575164648815,
0,7,4,2,mix,0,78,78,78,,,,,,,None,381.84983864894866,None,380.8590341515164,None,381.35026968813145,None,1,[0.008665042145366897],[0.5175157775097432],381.84983864894866,None,[1 3 3 3 3 2 1 0],space,0,1.0213487469973188,0.002530911987832951,None,381.8664763124084,None,0,382.8989501758474,None,None,383.3985225041582,None,,,,,,,,,,,,,,,,,,,,,,,,,,,,,,,,,,,,,,,,,,,,,,18_GV,18,28,F,2022-12-12_09h43.59.205,dynamic target,2022.1.3,120.09575164648815,
0,5,1,0,mix,0,79,79,79,,,,,,,None,384.4309747194234,None,383.45683546682767,384.45595318350024,383.93138459150396,None,1,[0.05852543548098765],[0.5676680202923308],384.4309747194234,None,[2 0 2 0 2 0 0 0],space,0,2.326283632499326,0.0022496460928778106,None,384.4976058723955,None,1,386.8289316450109,None,None,387.32849659690726,None,,,,,,,,,,,,,,,,,,,,,,,,,,,,,,,,,,,,,,,,,,,,,,18_GV,18,28,F,2022-12-12_09h43.59.205,dynamic target,2022.1.3,120.09575164648815,
1,6,1,2,mix,0,80,80,80,,,,,,,None,388.3526166708252,None,387.36179966555983,None,387.8530502757176,None,1,[0.009307752355198318],[0.5175779959627107],388.3526166708252,None,[3 2 0 0 2 2 1 2],space,0,4.646844971234714,0.0025661904924163537,None,388.36927774638343,None,1,393.0153262652316,None,None,393.51487999214885,None,,,,,,,,,,,,,,,,,,,,,,,,,,,,,,,,,,,,,,,,,,,,,,18_GV,18,28,F,2022-12-12_09h43.59.205,dynamic target,2022.1.3,120.09575164648815,
1,7,1,2,mix,0,81,81,81,,,,,,,None,394.5473302831324,None,393.573175315566,None,394.0477449659179,None,1,[0.008706093495675304],[0.5172694694047095],394.5473302831324,None,[1 0 0 3 0 3 2 0],space,0,2.0196970715569478,0.0027294337546663883,None,394.56400194224216,None,1,396.5872495146,None,None,397.0868324264619,None,,,,,,,,,,,,,,,,,,,,,,,,,,,,,,,,,,,,,,,,,,,,,,18_GV,18,28,F,2022-12-12_09h43.59.205,dynamic target,2022.1.3,120.09575164648815,
0,8,1,2,mix,0,82,82,82,,,,,,,None,398.1192859245821,None,397.1451136384776,None,397.6197050973592,None,1,[0.008712187055607501],[0.5176049359120043],398.1192859245821,None,[3 1 1 0 3 1 3 3],space,0,2.895495247722465,0.002572925479398691,None,398.1359360958754,None,1,401.0334732072588,None,None,401.5330352727318,None,,,,,,,,,,,,,,,,,,,,,,,,,,,,,,,,,,,,,,,,,,,,,,18_GV,18,28,F,2022-12-12_09h43.59.205,dynamic target,2022.1.3,120.09575164648815,
0,1,4,2,mix,0,83,83,83,,,,,,,None,402.5654608687619,None,401.59132450258903,None,402.06588773866724,None,1,[0.00864964788843281],[0.516908025090288],402.5654608687619,None,[0 3 3 3 0 0 2 3],space,0,2.178127704074541,0.0030754838126085815,None,402.5821591471067,None,1,404.7636109281261,None,None,405.2631983299797,None,,,,,,,,,,,,,,,,,,,,,,,,,,,,,,,,,,,,,,,,,,,,,,18_GV,18,28,F,2022-12-12_09h43.59.205,dynamic target,2022.1.3,120.09575164648815,
0,8,4,1,mix,0,84,84,84,,,,,,,None,406.29563418884754,None,405.3131188571301,None,405.7960581723296,None,1,[0.008669852850289317],[0.5173320085718842],406.29563418884754,None,[2 0 3 2 0 1 3 0],space,0,1.6791405178692003,0.002754449420990568,None,406.31226640017485,None,0,408.0025509565926,None,None,408.5020835164072,None,,,,,,,,,,,,,,,,,,,,,,,,,,,,,,,,,,,,,,,,,,,,,,18_GV,18,28,F,2022-12-12_09h43.59.205,dynamic target,2022.1.3,120.09575164648815,
0,1,1,2,mix,0,85,85,85,,,,,,,None,409.5345097538652,None,408.5520216828104,None,409.0349609980094,None,1,[0.008601540836934873],[0.517230342336461],409.5345097538652,None,[1 2 2 0 2 0 0 3],space,0,2.503992364185706,0.002906467704633542,None,409.5511711501367,None,1,412.05736990410014,None,None,412.55694383597927,None,,,,,,,,,,,,,,,,,,,,,,,,,,,,,,,,,,,,,,,,,,,,,,18_GV,18,28,F,2022-12-12_09h43.59.205,dynamic target,2022.1.3,120.09575164648815,
0,5,3,0,mix,0,86,86,86,,,,,,,None,413.5810712863117,None,412.59857391456035,None,413.0815071361999,None,1,[0.007939267092297086],[0.5167152761696343],413.5810712863117,None,[1 1 1 0 1 1 1 3],space,0,2.3443859953249557,0.002654707467172557,None,413.5977188918955,None,1,415.9457269071718,None,None,416.4453014804784,None,,,,,,,,,,,,,,,,,,,,,,,,,,,,,,,,,,,,,,,,,,,,,,18_GV,18,28,F,2022-12-12_09h43.59.205,dynamic target,2022.1.3,120.09575164648815,
0,6,4,2,mix,0,87,87,87,,,,,,,None,417.4777338114959,None,416.4952361190308,None,416.9781507392772,None,1,[0.009573303280376422],[0.5172912779348735],417.4777338114959,None,[3 2 2 0 2 0 3 1],space,0,2.2402733555500163,0.002228158276011527,None,417.49440482917817,None,1,419.73417261964687,None,None,420.2337250637096,None,,,,,,,,,,,,,,,,,,,,,,,,,,,,,,,,,,,,,,,,,,,,,,18_GV,18,28,F,2022-12-12_09h43.59.205,dynamic target,2022.1.3,120.09575164648815,
0,5,1,1,mix,0,88,88,88,,,,,,,None,421.26617182684276,None,420.2837135821601,421.28282584670023,420.76660671458967,None,4,"[0.008646440751817863, 0.5424996937185824, 0.5753350014720127, 0.6088171887136014]","[0.28346470834594584, 0.5505874512432456, 0.6006351413675475, 1.1164168200211861]",421.26617182684276,None,[0 0 3 3 1 0 0 2],space,0,2.220620021378636,0.0031489272450926364,None,421.882338810909,None,1,424.105413454452,None,None,424.604975519925,None,,,,,,,,,,,,,,,,,,,,,,,,,,,,,,,,,,,,,,,,,,,,,,18_GV,18,28,F,2022-12-12_09h43.59.205,dynamic target,2022.1.3,120.09575164648815,
0,3,4,0,mix,0,89,89,89,,,,,,,None,425.6374469780112,None,424.6549595483839,None,425.1378587743734,None,1,[0.008560489486171718],[0.5171440703570624],425.6374469780112,None,[3 0 1 1 2 0 1 2],space,0,2.160381333430905,0.0028962048668290663,None,425.65408849003506,None,1,427.81891479471415,None,None,428.318480388038,None,,,,,,,,,,,,,,,,,,,,,,,,,,,,,,,,,,,,,,,,,,,,,,18_GV,18,28,F,2022-12-12_09h43.59.205,dynamic target,2022.1.3,120.09575164648815,
1,4,2,2,mix,0,90,90,90,,,,,,,None,429.3509502425559,None,428.37682734635746,None,428.8513723017554,None,1,[0.009356500834201142],[0.5175266817745978],429.3509502425559,None,[2 1 1 2 1 3 0 3],space,0,3.4540684695411983,0.0026219946726087073,None,429.367599451708,None,1,432.8229660498914,None,None,433.32250951397134,None,,,,,,,,,,,,,,,,,,,,,,,,,,,,,,,,,,,,,,,,,,,,,,18_GV,18,28,F,2022-12-12_09h43.59.205,dynamic target,2022.1.3,120.09575164648815,
1,5,4,2,mix,0,91,91,91,,,,,,,None,434.35500181844645,None,433.38084749230757,None,433.855426443356,None,1,[0.008655741447910259],[0.5172835808066338],434.35500181844645,None,[3 2 3 0 2 1 0 3],space,0,2.354609064516353,0.002891394161451899,None,434.37165166902605,None,1,436.7279668099827,None,None,437.2275522875542,None,,,,,,,,,,,,,,,,,,,,,,,,,,,,,,,,,,,,,,,,,,,,,,18_GV,18,28,F,2022-12-12_09h43.59.205,dynamic target,2022.1.3,120.09575164648815,
0,6,2,2,mix,0,92,92,92,,,,,,,None,438.26001059637974,None,437.28582900957826,None,437.76041565775495,None,1,[0.008539322383057879],[0.5171540124806597],438.26001059637974,None,[2 2 0 2 0 1 3 3],space,0,2.257409408064632,0.0028583606531356054,None,438.2766482598395,None,1,440.5330456959264,None,None,441.0326308527841,None,,,,,,,,,,,,,,,,,,,,,,,,,,,,,,,,,,,,,,,,,,,,,,18_GV,18,28,F,2022-12-12_09h43.59.205,dynamic target,2022.1.3,120.09575164648815,
1,7,1,2,mix,0,93,93,93,,,,,,,None,442.06508050234015,None,441.090941249744,None,441.56550641010426,None,1,[0.008676587837726402],[0.5169837135181297],442.06508050234015,None,[2 1 3 0 0 3 0 0],space,0,2.4685483713774374,0.0031880543133411265,None,442.08173259791556,None,1,444.55459765506976,None,None,445.0541840947825,None,,,,,,,,,,,,,,,,,,,,,,,,,,,,,,,,,,,,,,,,,,,,,,18_GV,18,28,F,2022-12-12_09h43.59.205,dynamic target,2022.1.3,120.09575164648815,
1,8,2,2,mix,0,94,94,94,,,,,,,None,446.08663149934273,None,445.11248903960995,None,445.58707248064957,None,1,[0.008626235789961356],[0.5171575403314819],446.08663149934273,None,[1 1 1 2 2 2 3 0],space,0,2.350078342391498,0.0029917775427747983,None,446.10329770632006,None,1,448.4512755745104,None,None,448.95087099420596,None,,,,,,,,,,,,,,,,,,,,,,,,,,,,,,,,,,,,,,,,,,,,,,18_GV,18,28,F,2022-12-12_09h43.59.205,dynamic target,2022.1.3,120.09575164648815,
0,1,2,2,mix,0,95,95,95,,,,,,,None,449.9833183987662,None,449.0092118589655,None,449.48374238224824,None,1,[0.008609879392224684],[0.5169766578169401],449.9833183987662,None,[2 1 3 0 1 3 0 0],space,0,1.8293458066946187,0.0031213458682941564,None,449.99995894864924,None,1,451.83172923042184,None,None,452.33127269450176,None,,,,,,,,,,,,,,,,,,,,,,,,,,,,,,,,,,,,,,,,,,,,,,18_GV,18,28,F,2022-12-12_09h43.59.205,dynamic target,2022.1.3,120.09575164648815,
1,8,1,1,mix,0,96,96,96,,,,,,,None,453.3637738186029,None,452.3812756450675,None,452.85585235111967,None,1,[0.008648044320125337],[0.5164558188043884],453.3637738186029,None,[3 2 3 1 0 1 0 1],space,0,4.104918072144756,0.0028522670927486615,None,453.3720958574695,None,1,457.476925613028,None,None,457.9764668321121,None,,,,,,,,,,,,,,,,,,,,,,,,,,,,,,,,,,,,,,,,,,,,,,18_GV,18,28,F,2022-12-12_09h43.59.205,dynamic target,2022.1.3,120.09575164648815,
1,1,4,2,mix,0,97,97,97,,,,,,,None,459.0089402144804,None,458.0348186011365,459.0339193199843,458.50936740509906,None,2,"[0.0076252884014138544, 0.7993047568893417]","[0.516849013773026, 1.30710547567287]",459.0089402144804,None,[3 1 2 2 1 2 1 2],space,0,2.5243544755849143,0.0028131400249549188,None,459.81656524631126,None,1,462.3394407908031,None,None,462.8390022148486,None,,,,,,,,,,,,,,,,,,,,,,,,,,,,,,,,,,,,,,,,,,,,,,18_GV,18,28,F,2022-12-12_09h43.59.205,dynamic target,2022.1.3,120.09575164648815,
0,2,3,2,mix,0,98,98,98,,,,,,,None,463.871438715144,None,462.88899875114066,None,463.3719008635535,None,1,[0.00863425363195347],[0.5174728018769201],463.871438715144,None,[2 0 2 0 2 1 1 1],space,0,2.3888359489178583,0.002663366736669559,None,463.8880981871339,None,1,466.27773227207035,None,None,466.77731197679566,None,,,,,,,,,,,,,,,,,,,,,,,,,,,,,,,,,,,,,,,,,,,,,,18_GV,18,28,F,2022-12-12_09h43.59.205,dynamic target,2022.1.3,120.09575164648815,
1,3,1,2,mix,0,99,99,99,,,,,,,None,467.80979947056585,None,466.83558517096935,None,467.31018176126963,None,1,[0.00880968401361315],[0.5176058980528069],467.80979947056585,None,[1 2 3 1 2 0 2 3],space,0,3.105805486891313,0.0024321321752722724,None,467.8264159669229,None,1,470.9320975380092,None,None,471.43166313133304,None,,,,,,,,,,,,,,,,,,,,,,,,,,,,,,,,,,,,,,,,,,,,,,18_GV,18,28,F,2022-12-12_09h43.59.205,dynamic target,2022.1.3,120.09575164648815,
1,4,1,2,mix,0,100,100,100,,,,,,,None,472.464133627278,None,471.4732749292343,None,471.9645300293837,None,1,[0.008712507768905198],[0.5176296308650308],472.464133627278,None,[0 0 0 0 2 3 1 0],space,0,1.8588296565153541,0.0025886404500852223,None,472.48077353573353,None,1,474.33749919019783,None,None,474.8370872334789,None,,,,,,,,,,,,,,,,,,,,,,,,,,,,,,,,,,,,,,,,,,,,,,18_GV,18,28,F,2022-12-12_09h43.59.205,dynamic target,2022.1.3,120.09575164648815,
1,1,3,0,mix,0,101,101,101,,,,,,,None,475.86952533734257,None,474.8954130246957,None,475.3699557350983,None,1,[0.008714111337667418],[0.5171928188356105],475.86952533734257,None,[3 1 2 0 0 3 2 1],space,0,1.6220752917629397,0.0028509842381936323,None,475.88619058217864,None,1,477.5097891435853,None,None,478.00937397972973,None,,,,,,,,,,,,,,,,,,,,,,,,,,,,,,,,,,,,,,,,,,,,,,18_GV,18,28,F,2022-12-12_09h43.59.205,dynamic target,2022.1.3,120.09575164648815,
0,6,3,0,mix,0,102,102,102,,,,,,,None,479.04180887645634,None,478.059321446829,None,478.54225370632776,None,1,[0.009333409449482133],[0.517466066889483],479.04180887645634,None,[2 2 2 2 2 3 2 3],space,0,1.760761828138584,0.0025161591584037524,None,479.0584568027539,None,1,480.82362607864025,None,None,481.3232356097377,None,,,,,,,,,,,,,,,,,,,,,,,,,,,,,,,,,,,,,,,,,,,,,,18_GV,18,28,F,2022-12-12_09h43.59.205,dynamic target,2022.1.3,120.09575164648815,
0,6,1,0,mix,0,103,103,103,,,,,,,None,482.3556642525481,None,481.3815450445568,None,481.847748557911,None,1,[0.00951781981439126],[0.5164789101895622],482.3556642525481,None,[1 2 0 2 0 1 3 1],space,0,1.879641087777145,0.003104668757714535,None,482.3640151556456,None,1,484.2457167084772,None,None,484.74528326394136,None,,,,,,,,,,,,,,,,,,,,,,,,,,,,,,,,,,,,,,,,,,,,,,18_GV,18,28,F,2022-12-12_09h43.59.205,dynamic target,2022.1.3,120.09575164648815,
1,6,4,0,mix,0,104,104,104,,,,,,,None,485.77774510061727,None,484.8035680038074,None,485.27816491482145,None,1,[0.008746182705635874],[0.5178018541100755],485.77774510061727,None,[2 1 3 2 2 3 1 3],space,0,2.4642851244593658,0.002352915896608465,None,485.79438885763693,None,1,488.2589554483802,None,None,488.75854862307995,None,,,,,,,,,,,,,,,,,,,,,,,,,,,,,,,,,,,,,,,,,,,,,,18_GV,18,28,F,2022-12-12_09h43.59.205,dynamic target,2022.1.3,120.09575164648815,
1,7,3,2,mix,0,105,105,105,,,,,,,None,489.7826521802434,None,488.79183116605736,None,489.2830971704716,None,1,[0.008657665730424924],[0.5088414346678292],489.7826521802434,None,[3 3 2 2 2 2 1 1],space,0,2.1959799102319266,0.002790690066831303,None,489.7909774262471,None,1,491.98910567708117,None,None,492.48869788963964,None,,,,,,,,,,,,,,,,,,,,,,,,,,,,,,,,,,,,,,,,,,,,,,18_GV,18,28,F,2022-12-12_09h43.59.205,dynamic target,2022.1.3,120.09575164648815,
0,8,2,2,mix,0,106,106,106,,,,,,,None,493.5211080914137,None,492.54699032663393,None,493.0215519591434,None,1,[0.0085999372686274],[0.5173631177990501],493.5211080914137,None,[0 2 0 3 3 1 1 1],space,0,2.2729842263970568,0.002711794502374687,None,493.53776371483946,None,1,495.8108421107322,None,None,496.3104093076239,None,,,,,,,,,,,,,,,,,,,,,,,,,,,,,,,,,,,,,,,,,,,,,,18_GV,18,28,F,2022-12-12_09h43.59.205,dynamic target,2022.1.3,120.09575164648815,
1,1,2,2,mix,0,107,107,107,,,,,,,None,497.3345191187045,None,496.34373867479826,497.34286088146246,496.834947271464,None,1,[2.4067056740022963],[2.9145718183758618],497.3345191187045,None,[0 2 0 0 1 3 0 3],space,0,2.1898962924792613,0.00302352819699081,None,499.7491396855594,None,1,501.9389229664989,None,None,502.43851133049327,None,,,,,,,,,,,,,,,,,,,,,,,,,,,,,,,,,,,,,,,,,,,,,,18_GV,18,28,F,2022-12-12_09h43.59.205,dynamic target,2022.1.3,120.09575164648815,
1,2,1,2,mix,0,108,108,108,,,,,,,None,503.4626307629842,None,502.4717993256031,None,502.9630605193124,None,1,[0.008909746681183606],[0.5175488110180595],503.4626307629842,None,[3 3 2 2 3 2 0 3],space,0,3.034622765404947,0.0024824842225825705,None,503.47929953567063,None,1,506.51835251949433,None,None,507.0179444113395,None,,,,,,,,,,,,,,,,,,,,,,,,,,,,,,,,,,,,,,,,,,,,,,18_GV,18,28,F,2022-12-12_09h43.59.205,dynamic target,2022.1.3,120.09575164648815,
1,3,2,2,mix,0,109,109,109,,,,,,,None,508.0503908537589,None,507.0595356835661,None,507.550806819399,None,1,[0.008760294107560185],[0.5175622809929337],508.0503908537589,None,[0 0 2 2 3 3 1 1],space,0,2.591782602045896,0.0025700390565361886,None,508.06703268649653,None,1,510.6564919183361,None,None,511.1560507766725,None,,,,,,,,,,,,,,,,,,,,,,,,,,,,,,,,,,,,,,,,,,,,,,18_GV,18,28,F,2022-12-12_09h43.59.205,dynamic target,2022.1.3,120.09575164648815,
0,4,3,2,mix,0,110,110,110,,,,,,,None,512.188514697987,None,511.19770009807416,None,511.6889715546208,None,1,[0.008687492102581018],[0.5089559294506216],512.188514697987,None,[3 2 3 3 0 0 1 1],space,0,1.8540260070503791,0.002895563439324178,None,512.1968380197086,None,1,514.0535838791343,None,None,514.5531497931719,None,,,,,,,,,,,,,,,,,,,,,,,,,,,,,,,,,,,,,,,,,,,,,,18_GV,18,28,F,2022-12-12_09h43.59.205,dynamic target,2022.1.3,120.09575164648815,
0,5,2,2,mix,0,111,111,111,,,,,,,None,515.5856004048687,None,514.6114694908283,None,515.0860365754706,None,1,[0.008690057812145824],[0.5170462526853044],515.5856004048687,None,[1 0 3 0 1 0 2 0],space,0,2.14402012516166,0.0029430290637719736,None,515.6022525004441,None,1,517.7504138810009,None,None,518.2499961514358,None,,,,,,,,,,,,,,,,,,,,,,,,,,,,,,,,,,,,,,,,,,,,,,18_GV,18,28,F,2022-12-12_09h43.59.205,dynamic target,2022.1.3,120.09575164648815,
1,4,3,1,mix,0,112,112,112,,,,,,,None,519.2824400281456,None,518.3082728734598,None,518.7828851787303,None,1,[0.008576204456403502],[0.517146956779925],519.2824400281456,None,[2 2 2 2 2 1 2 1],space,0,1.7747985036717182,0.0027563737030504853,None,519.2991065558367,None,1,521.0725704495699,None,None,521.5721799806673,None,,,,,,,,,,,,,,,,,,,,,,,,,,,,,,,,,,,,,,,,,,,,,,18_GV,18,28,F,2022-12-12_09h43.59.205,dynamic target,2022.1.3,120.09575164648815,
1,5,4,2,mix,0,113,113,113,,,,,,,None,522.6046042938428,None,521.6138081349663,None,522.1050391815897,None,1,[0.008642912901450472],[0.517278449387959],522.6046042938428,None,[1 2 2 3 3 0 3 1],space,0,2.3887124741518164,0.002558814077929128,None,522.6212515787129,None,1,525.0108911157822,None,None,525.5104650476613,None,,,,,,,,,,,,,,,,,,,,,,,,,,,,,,,,,,,,,,,,,,,,,,18_GV,18,28,F,2022-12-12_09h43.59.205,dynamic target,2022.1.3,120.09575164648815,
0,4,4,1,mix,0,114,114,114,,,,,,,None,526.5429047550933,None,525.56874305254,None,526.0433274557208,None,1,[0.008640667905183363],[0.5174137905596581],526.5429047550933,None,[1 0 1 0 1 0 2 0],space,0,1.3940751275576986,0.0027595808401201793,None,526.5595443428351,None,0,527.9583726474848,None,None,528.4579456172231,None,,,,,,,,,,,,,,,,,,,,,,,,,,,,,,,,,,,,,,,,,,,,,,18_GV,18,28,F,2022-12-12_09h43.59.205,dynamic target,2022.1.3,120.09575164648815,
1,5,2,2,mix,0,115,115,115,,,,,,,None,529.4903859660826,None,528.5162377335037,None,528.9908227781116,None,1,[0.008572035178531223],[0.5173342535676966],529.4903859660826,None,[2 0 1 0 3 1 2 3],space,0,1.5350358446216887,0.002604034706564562,None,529.507086810137,None,1,531.047398274432,None,None,531.5469741305932,None,,,,,,,,,,,,,,,,,,,,,,,,,,,,,,,,,,,,,,,,,,,,,,18_GV,18,28,F,2022-12-12_09h43.59.205,dynamic target,2022.1.3,120.09575164648815,
1,6,2,2,mix,0,116,116,116,,,,,,,None,532.5794234594359,None,531.6052970353867,None,532.0798317279473,None,1,[0.00863425363195347],[0.5175735059715407],532.5794234594359,None,[0 1 0 2 3 0 2 2],space,0,1.7892052827892257,0.0025228941462955845,None,532.5960575950448,None,1,534.3861909028924,None,None,534.8857863225879,None,,,,,,,,,,,,,,,,,,,,,,,,,,,,,,,,,,,,,,,,,,,,,,18_GV,18,28,F,2022-12-12_09h43.59.205,dynamic target,2022.1.3,120.09575164648815,
0,7,2,2,mix,0,117,117,117,,,,,,,None,535.918229237157,None,534.935729299696,None,535.4186548242074,None,1,[0.009248420324638573],[0.5178685625546677],535.918229237157,None,[1 3 2 3 2 3 0 3],space,0,2.2573744502742557,0.002248363237868034,None,535.9348922369973,None,0,538.1996311151279,None,None,538.6992169134131,None,,,,,,,,,,,,,,,,,,,,,,,,,,,,,,,,,,,,,,,,,,,,,,18_GV,18,28,F,2022-12-12_09h43.59.205,dynamic target,2022.1.3,120.09575164648815,
0,8,2,2,mix,0,118,118,118,,,,,,,None,539.7316469994348,None,538.7491534762476,None,539.2320693793486,None,1,[0.008654779307107674],[0.5173900577474342],539.7316469994348,None,[0 3 2 2 2 2 3 0],space,0,2.236908427643357,0.0026527831855673867,None,539.7482865871766,None,1,541.9880457183763,None,None,542.4876331202298,None,,,,,,,,,,,,,,,,,,,,,,,,,,,,,,,,,,,,,,,,,,,,,,18_GV,18,28,F,2022-12-12_09h43.59.205,dynamic target,2022.1.3,120.09575164648815,
0,1,3,2,mix,0,119,119,119,,,,,,,None,543.5200680169569,None,542.5459605150149,None,543.0204814168874,None,1,[0.008599616554874956],[0.5176780586302812],543.5200680169569,None,[1 1 2 0 2 2 0 1],space,0,3.1034196978425825,0.0024100029318105953,None,543.5367557117502,None,1,546.6424087393193,None,space,547.150297975078,None,0.7271863132164071,,,,,,,,,,,,,,,,,,,,,,,,,,,,,,,,,,,,,,,,,,,,,18_GV,18,28,F,2022-12-12_09h43.59.205,dynamic target,2022.1.3,120.09575164648815,
1,2,3,2,mix,0,120,120,120,,,,,,,None,548.9237880069762,None,547.9496681575574,None,548.4158719916254,None,1,[0.009081649212475895],[0.5164352931292342],548.9237880069762,None,[0 3 2 2 2 1 1 3],space,0,1.5001752299936015,0.0026515003310123575,None,548.9321151772615,None,1,550.4308579796448,None,None,550.9303998401564,None,,,,,,,,,,,,,,,,,,,,,,,,,,,,,,,,,,,,,,,,,,,,,,18_GV,18,28,F,2022-12-12_09h43.59.205,dynamic target,2022.1.3,120.09575164648815,
0,3,2,2,mix,0,121,121,121,,,,,,,None,551.9628658461102,None,550.980352117961,551.9795086409886,551.4632917538738,None,2,"[0.008671777132349234, 0.9419979692411289]","[0.15842197324900553, 1.4497053603445238]",551.9628658461102,None,[0 2 2 3 1 2 2 2],space,0,1.8722300361123416,0.00277369224204449,None,552.9120615924203,None,1,554.785454095289,None,None,555.2850328378735,None,,,,,,,,,,,,,,,,,,,,,,,,,,,,,,,,,,,,,,,,,,,,,,18_GV,18,28,F,2022-12-12_09h43.59.205,dynamic target,2022.1.3,120.09575164648815,
0,4,4,2,mix,0,122,122,122,,,,,,,None,556.3174776767246,None,555.3349767771224,None,555.817911923044,None,1,[0.008629122212823859],[0.5173890956066316],556.3174776767246,None,[2 0 0 0 2 3 0 3],space,0,1.4743414225386005,0.002802556473397999,None,556.3341163023251,None,1,557.8078700570804,None,None,558.3074257082802,None,,,,,,,,,,,,,,,,,,,,,,,,,,,,,,,,,,,,,,,,,,,,,,18_GV,18,28,F,2022-12-12_09h43.59.205,dynamic target,2022.1.3,120.09575164648815,
0,5,1,2,mix,0,123,123,123,,,,,,,None,559.3398965249389,None,558.3573901732047,None,558.8403233948438,None,1,[0.007792700941536168],[0.5165562021857113],559.3398965249389,None,[1 3 0 1 1 1 3 0],space,0,4.13095745706778,0.0021851826431884547,None,559.3565540726468,None,1,563.486339200897,None,None,563.985933337738,None,,,,,,,,,,,,,,,,,,,,,,,,,,,,,,,,,,,,,,,,,,,,,,18_GV,18,28,F,2022-12-12_09h43.59.205,dynamic target,2022.1.3,120.09575164648815,
0,6,4,2,mix,0,124,124,124,,,,,,,None,565.0183781765886,None,564.0358740698503,None,564.5187944629424,None,1,[0.008618538661721686],[0.5172332287593235],565.0183781765886,None,[2 1 2 0 1 2 1 0],space,0,1.812884856470646,0.00284040068709146,None,565.0350312343048,None,1,566.8501458926521,None,None,567.3497098824072,None,,,,,,,,,,,,,,,,,,,,,,,,,,,,,,,,,,,,,,,,,,,,,,18_GV,18,28,F,2022-12-12_09h43.59.205,dynamic target,2022.1.3,120.09575164648815,
1,7,3,2,mix,0,125,125,125,,,,,,,None,568.3821553626854,None,567.4080629342861,None,567.8826187939499,None,1,[0.00856882804146153],[0.5171180925490262],568.3821553626854,None,[2 3 2 1 1 2 3 1],space,0,1.424639461758943,0.002626484663778683,None,568.3988202868077,None,0,569.8309277669414,None,None,570.3304984916834,None,,,,,,,,,,,,,,,,,,,,,,,,,,,,,,,,,,,,,,,,,,,,,,18_GV,18,28,F,2022-12-12_09h43.59.205,dynamic target,2022.1.3,120.09575164648815,
1,1,1,0,mix,0,126,126,126,,,,,,,None,571.3629414062525,None,570.3888079265025,None,570.8633833497001,None,1,[0.008659269298732397],[0.5172094959470996],571.3629414062525,None,[1 3 0 1 2 3 2 0],space,0,5.787189276610661,0.002750280143573036,None,571.3796364774607,None,1,577.1663224339859,None,None,577.6659409450662,None,,,,,,,,,,,,,,,,,,,,,,,,,,,,,,,,,,,,,,,,,,,,,,18_GV,18,28,F,2022-12-12_09h43.59.205,dynamic target,2022.1.3,120.09575164648815,
1,2,3,2,mix,0,127,127,127,,,,,,,None,578.6983626925326,None,577.7158864878838,None,578.1987837895913,None,1,[0.008669852850289317],[0.5169417000265639],578.6983626925326,None,[0 0 1 0 2 1 3 2],space,0,1.9886744375098715,0.0029430290637719736,None,578.7149856031629,None,1,580.704976129281,None,None,581.2045532682968,None,,,,,,,,,,,,,,,,,,,,,,,,,,,,,,,,,,,,,,,,,,,,,,18_GV,18,28,F,2022-12-12_09h43.59.205,dynamic target,2022.1.3,120.09575164648815,
0,3,2,2,mix,0,128,128,128,,,,,,,None,582.2370122185498,None,581.246166349053,None,581.7374265806211,None,1,[0.008677229264776543],[0.5177614441863625],582.2370122185498,None,[2 1 1 3 1 0 3 3],space,0,2.4008781060892943,0.0023051295588629728,None,582.2536543720007,None,1,584.6599383075168,None,None,585.1594929965753,None,,,,,,,,,,,,,,,,,,,,,,,,,,,,,,,,,,,,,,,,,,,,,,18_GV,18,28,F,2022-12-12_09h43.59.205,dynamic target,2022.1.3,120.09575164648815,
0,4,3,2,mix,0,129,129,129,,,,,,,None,586.1919541918242,None,585.2094590650681,None,585.6923967766993,None,1,[0.008808401159058121],[0.5174509933463014],586.1919541918242,None,[3 1 3 0 3 2 2 3],space,0,1.5498986785892157,0.0027214159126742743,None,586.2085947417067,None,1,587.7572604765933,None,None,588.2568405020323,None,,,,,,,,,,,,,,,,,,,,,,,,,,,,,,,,,,,,,,,,,,,,,,18_GV,18,28,F,2022-12-12_09h43.59.205,dynamic target,2022.1.3,120.09575164648815,
0,3,2,1,mix,0,130,130,130,,,,,,,None,589.2893065079861,None,588.2984741084642,None,588.789741395733,None,1,[0.009214103961312503],[0.5175135325134761],589.2893065079861,None,[0 2 0 0 2 2 2 3],space,0,1.1406814957763345,0.002571321911545965,None,589.3059470578687,None,1,590.4466585804057,None,None,590.946231550144,None,,,,,,,,,,,,,,,,,,,,,,,,,,,,,,,,,,,,,,,,,,,,,,18_GV,18,28,F,2022-12-12_09h43.59.205,dynamic target,2022.1.3,120.09575164648815,
0,4,1,2,mix,0,131,131,131,,,,,,,None,591.9786658054436,None,591.0045044236035,None,591.4791042210409,None,1,[0.009468429907883547],[0.517335857136004],591.9786658054436,None,[0 0 2 3 0 0 0 0],space,0,3.4109170856299897,0.0025985825741372537,None,591.9953294467109,None,1,595.4090799173587,None,None,595.9086538492378,None,,,,,,,,,,,,,,,,,,,,,,,,,,,,,,,,,,,,,,,,,,,,,,18_GV,18,28,F,2022-12-12_09h43.59.205,dynamic target,2022.1.3,120.09575164648815,
1,5,1,2,mix,0,132,132,132,,,,,,,None,596.9410900288194,None,595.958597467773,None,596.4415377451132,None,1,[0.008702244932010217],[0.5171078297116765],596.9410900288194,None,[3 0 3 0 2 2 0 0],space,0,3.1046672740490067,0.0030171139233061695,None,596.9577571979376,None,1,600.0634355618872,None,None,600.5630005137831,None,,,,,,,,,,,,,,,,,,,,,,,,,,,,,,,,,,,,,,,,,,,,,,18_GV,18,28,F,2022-12-12_09h43.59.205,dynamic target,2022.1.3,120.09575164648815,
0,6,4,2,mix,0,133,133,133,,,,,,,None,601.5954527290487,None,600.6213513206667,None,601.0958985210609,None,1,[0.009214103960857756],[0.5173971134486237],601.5954527290487,None,[1 3 3 1 2 0 1 2],space,0,1.8576340359250025,0.0025543240863044048,None,601.6121131631799,None,1,603.4688699268709,None,None,603.9684313509164,None,,,,,,,,,,,,,,,,,,,,,,,,,,,,,,,,,,,,,,,,,,,,,,18_GV,18,28,F,2022-12-12_09h43.59.205,dynamic target,2022.1.3,120.09575164648815,
0,7,4,2,mix,0,134,134,134,,,,,,,None,605.0008925461652,None,604.0183881187127,None,604.5013126810827,None,1,[0.008746824133140763],[0.5173772292009744],605.0008925461652,None,[3 2 1 1 3 1 0 0],space,0,3.316306550698755,0.0026851752672882867,None,605.0175484903043,None,1,608.3313652203974,None,None,608.8309359451399,None,,,,,,,,,,,,,,,,,,,,,,,,,,,,,,,,,,,,,,,,,,,,,,18_GV,18,28,F,2022-12-12_09h43.59.205,dynamic target,2022.1.3,120.09575164648815,
0,8,1,2,mix,0,135,135,135,,,,,,,None,609.863403554662,None,608.880894957932,None,609.3638217652979,None,1,[0.008716677047232224],[0.5171511260577972],609.863403554662,None,[1 3 2 2 0 2 3 0],space,0,2.4692661285880604,0.0028679820634351927,None,609.8800537259553,None,1,612.3529226316737,None,None,612.8525295970616,None,,,,,,,,,,,,,,,,,,,,,,,,,,,,,,,,,,,,,,,,,,,,,,18_GV,18,28,F,2022-12-12_09h43.59.205,dynamic target,2022.1.3,120.09575164648815,
1,7,3,1,mix,0,136,136,136,,,,,,,None,613.884937233126,None,612.9024664806097,None,613.3853910429802,None,1,[0.008640988619390555],[0.5171880081306881],613.884937233126,None,[3 1 2 3 3 2 1 1],space,0,1.2795883624485214,0.0029423876367218327,None,613.9016137029407,None,0,615.1921777292573,None,None,615.6917657725384,None,,,,,,,,,,,,,,,,,,,,,,,,,,,,,,,,,,,,,,,,,,,,,,18_GV,18,28,F,2022-12-12_09h43.59.205,dynamic target,2022.1.3,120.09575164648815,
1,7,1,0,mix,0,137,137,137,,,,,,,None,616.7158646793537,None,615.7334340160473,None,616.2163014913826,None,1,[0.00860346511899479],[0.5173069929051053],616.7158646793537,None,[2 1 2 3 2 1 2 3],space,0,2.689012405583526,0.0029584233202513133,None,616.7325305656168,None,1,619.4219299522842,None,None,619.921466360663,None,,,,,,,,,,,,,,,,,,,,,,,,,,,,,,,,,,,,,,,,,,,,,,18_GV,18,28,F,2022-12-12_09h43.59.205,dynamic target,2022.1.3,120.09575164648815,
1,6,2,1,mix,0,138,138,138,,,,,,,None,620.953923386634,None,619.9797632876489,None,620.454368857932,None,1,[0.008685567820066353],[0.5169965420650442],620.953923386634,None,[2 2 3 1 0 1 3 3],space,0,2.803039267278109,0.0031486065313401923,None,620.9705754822089,None,1,623.7765081079624,None,None,624.2760711355767,None,,,,,,,,,,,,,,,,,,,,,,,,,,,,,,,,,,,,,,,,,,,,,,18_GV,18,28,F,2022-12-12_09h43.59.205,dynamic target,2022.1.3,120.09575164648815,
0,7,4,2,mix,0,139,139,139,,,,,,,None,625.3085198229915,None,624.3260394490653,None,624.8089701049953,None,1,[0.008585184439198201],[0.5169830720906248],625.3085198229915,None,[3 0 1 0 1 0 3 1],space,0,2.7521981315153425,0.003053354568692157,None,625.325208479926,None,1,628.0811652554194,None,None,628.5807286037474,None,,,,,,,,,,,,,,,,,,,,,,,,,,,,,,,,,,,,,,,,,,,,,,18_GV,18,28,F,2022-12-12_09h43.59.205,dynamic target,2022.1.3,120.09575164648815,
0,8,1,2,mix,0,140,140,140,,,,,,,None,629.613188836855,None,628.6390620920924,None,629.1135932568022,None,1,[0.008704169213615387],[0.5170302170013201],629.613188836855,None,[2 1 0 2 3 2 1 2],space,0,2.718864755420327,0.0030584859878217685,None,629.6298284245968,None,1,632.3525512452347,None,None,632.8520892571822,None,,,,,,,,,,,,,,,,,,,,,,,,,,,,,,,,,,,,,,,,,,,,,,18_GV,18,28,F,2022-12-12_09h43.59.205,dynamic target,2022.1.3,120.09575164648815,
0,1,3,2,mix,0,141,141,141,,,,,,,None,633.8928671995218,None,632.910373034907,None,633.3932927865721,None,1,[0.008887938151019625],[0.5174202048333427],633.8928671995218,None,[0 2 0 1 2 3 2 3],space,0,0.9659374413267869,0.0020880063989352493,None,633.9095253886567,None,1,634.8753533462946,None,None,635.3749445967122,None,,,,,,,,,,,,,,,,,,,,,,,,,,,,,,,,,,,,,,,,,,,,,,18_GV,18,28,F,2022-12-12_09h43.59.205,dynamic target,2022.1.3,120.09575164648815,
1,2,1,2,mix,0,142,142,142,,,,,,,None,636.4073910391317,None,635.4248814802604,None,635.907806684058,None,1,[0.008660552153742174],[0.5173522135337407],636.4073910391317,None,[3 0 2 0 0 2 0 2],space,0,1.3478092931209176,0.0026726674336714495,None,636.4240421725658,None,0,637.78120207335,None,None,638.280772798092,None,,,,,,,,,,,,,,,,,,,,,,,,,,,,,,,,,,,,,,,,,,,,,,18_GV,18,28,F,2022-12-12_09h43.59.205,dynamic target,2022.1.3,120.09575164648815,
1,3,3,2,mix,0,143,143,143,,,,,,,None,639.3132426526099,None,638.339094420031,None,638.8136489968397,None,1,[0.008693264948306023],[0.5177357870920787],639.3132426526099,None,[1 0 0 3 3 1 1 1],space,0,2.1219556655610177,0.002456506414546311,None,639.3298729396552,None,1,641.4614155788595,None,None,641.9609728336271,None,,,,,,,,,,,,,,,,,,,,,,,,,,,,,,,,,,,,,,,,,,,,,,18_GV,18,28,F,2022-12-12_09h43.59.205,dynamic target,2022.1.3,120.09575164648815,
1,2,1,1,mix,0,144,144,144,,,,,,,None,642.9851020478849,None,641.9942666015831,None,642.4855091938989,None,1,[0.00864323361474817],[0.508746824132686],642.9851020478849,None,[1 2 3 1 1 3 0 1],space,0,3.3228795775235085,0.002931483371412469,None,642.993424728179,None,1,646.3155784103251,None,None,646.8151626050416,None,,,,,,,,,,,,,,,,,,,,,,,,,,,,,,,,,,,,,,,,,,,,,,18_GV,18,28,F,2022-12-12_09h43.59.205,dynamic target,2022.1.3,120.09575164648815,
0,3,2,2,mix,0,145,145,145,,,,,,,None,647.8476122545981,None,646.856796852901,None,647.3480343137976,None,1,[0.008967795856733574],[0.5176953771688204],647.8476122545981,None,[1 2 3 1 1 3 1 1],space,0,2.70690758737328,0.0024443192951366655,None,647.8642531251944,None,1,650.570284402475,None,None,651.06984839223,None,,,,,,,,,,,,,,,,,,,,,,,,,,,,,,,,,,,,,,,,,,,,,,18_GV,18,28,F,2022-12-12_09h43.59.205,dynamic target,2022.1.3,120.09575164648815,
0,4,1,2,mix,0,146,146,146,,,,,,,None,652.1023015696369,None,651.1197756543679,None,651.6027201009861,None,1,[0.008643875042253057],[0.5175407931765221],652.1023015696369,None,[2 3 2 1 0 0 0 2],space,0,2.915756655027053,0.002089289253945026,None,652.1189613623405,None,1,655.0331281193412,None,None,655.5327219354684,None,,,,,,,,,,,,,,,,,,,,,,,,,,,,,,,,,,,,,,,,,,,,,,18_GV,18,28,F,2022-12-12_09h43.59.205,dynamic target,2022.1.3,120.09575164648815,
0,5,2,2,mix,0,147,147,147,,,,,,,None,656.5651619636142,None,655.5910127688944,None,656.065588192092,None,1,[0.00810379320910215],[0.5171081504249742],656.5651619636142,None,[3 1 0 2 2 1 3 2],space,0,1.3486579015125244,0.002124247044321237,None,656.5818163041854,None,1,657.9306610614467,None,None,658.4302263340568,None,,,,,,,,,,,,,,,,,,,,,,,,,,,,,,,,,,,,,,,,,,,,,,18_GV,18,28,F,2022-12-12_09h43.59.205,dynamic target,2022.1.3,120.09575164648815,
0,6,4,2,mix,0,148,148,148,,,,,,,None,659.4627042064162,None,658.4885107532086,None,658.9631121542143,None,1,[0.008454333258669067],[0.5173127657517398],659.4627042064162,None,[1 3 2 2 0 2 1 1],space,0,2.3074564567618836,0.002315713109965145,None,659.4793514912863,None,1,661.7856869334191,None,None,662.285269203854,None,,,,,,,,,,,,,,,,,,,,,,,,,,,,,,,,,,,,,,,,,,,,,,18_GV,18,28,F,2022-12-12_09h43.59.205,dynamic target,2022.1.3,120.09575164648815,
0,7,1,2,mix,0,149,149,149,,,,,,,None,663.3177235037582,None,662.3352317444965,None,662.8098267312284,None,1,[0.008628160072021274],[0.5164664023559453],663.3177235037582,None,[0 1 0 0 0 3 3 0],space,0,1.7888531391708966,0.0029305212301551364,None,663.326060616168,None,0,665.1245154818112,None,None,665.624087810122,None,,,,,,,,,,,,,,,,,,,,,,,,,,,,,,,,,,,,,,,,,,,,,,18_GV,18,28,F,2022-12-12_09h43.59.205,dynamic target,2022.1.3,120.09575164648815,
1,8,2,2,mix,0,150,150,150,,,,,,,None,666.6565490053708,None,665.6740538786148,None,666.1569511803227,None,1,[0.008694227089563356],[0.5173400264138763],666.6565490053708,None,[2 0 2 3 3 3 1 2],space,0,3.033463706173734,0.00281570573361023,None,666.6731731988557,None,1,669.7039347719692,None,None,670.2035048552842,None,,,,,,,,,,,,,,,,,,,,,,,,,,,,,,,,,,,,,,,,,,,,,,18_GV,18,28,F,2022-12-12_09h43.59.205,dynamic target,2022.1.3,120.09575164648815,
0,1,3,2,mix,0,151,151,151,,,,,,,None,671.235946166285,None,670.2534577745164,None,670.7363730361899,None,1,[0.008701282790752884],[0.5174041691493585],671.235946166285,None,[3 0 3 2 0 2 1 2],space,0,2.293792450521778,0.0021736369512836973,None,671.2526008275695,None,1,673.5506499904104,None,None,674.0502293744224,None,,,,,,,,,,,,,,,,,,,,,,,,,,,,,,,,,,,,,,,,,,,,,,18_GV,18,28,F,2022-12-12_09h43.59.205,dynamic target,2022.1.3,120.09575164648815,
0,2,1,2,mix,0,152,152,152,,,,,,,None,675.0743231498186,None,674.0835369330662,None,674.5747811289507,None,1,[0.009218593952937226],[0.5174279019615824],675.0743231498186,None,[3 2 2 0 3 1 0 0],space,0,4.071282263051671,0.0025684354882287153,None,675.0909986574925,None,1,679.1625200526228,None,None,679.6620933430744,None,,,,,,,,,,,,,,,,,,,,,,,,,,,,,,,,,,,,,,,,,,,,,,18_GV,18,28,F,2022-12-12_09h43.59.205,dynamic target,2022.1.3,120.09575164648815,
0,3,2,2,mix,0,153,153,153,,,,,,,None,680.694537540498,None,679.7120533180073,680.7111893153597,680.1950044996129,None,1,[0.1163924457819121],[0.6246203551841063],680.694537540498,None,[1 3 3 1 3 3 1 2],space,0,3.0628394754858164,0.0031784329030415392,None,680.8194391615775,None,1,683.883473495901,None,None,684.3830586527587,None,,,,,,,,,,,,,,,,,,,,,,,,,,,,,,,,,,,,,,,,,,,,,,18_GV,18,28,F,2022-12-12_09h43.59.205,dynamic target,2022.1.3,120.09575164648815,
0,2,4,1,mix,0,154,154,154,,,,,,,None,685.4071787266766,None,684.416388019933,685.4155095851697,684.9076007858766,None,1,[0.05809375487069701],[0.5586530795249018],685.4071787266766,None,[0 3 3 1 1 3 2 2],space,0,3.95196041853751,0.0027935764896938053,None,685.465489925421,None,1,689.4204158630114,None,None,689.9200019820104,None,,,,,,,,,,,,,,,,,,,,,,,,,,,,,,,,,,,,,,,,,,,,,,18_GV,18,28,F,2022-12-12_09h43.59.205,dynamic target,2022.1.3,120.09575164648815,
0,3,2,2,mix,0,155,155,155,,,,,,,None,690.952446179434,None,689.9699600326612,None,690.4528647107836,None,1,[0.008669532136536873],[0.5171139232711539],690.952446179434,None,[0 0 1 1 1 0 0 0],space,0,1.6812129696545526,0.002957140465696284,None,690.9690755043384,None,1,692.6509913580494,None,None,693.1505624035052,None,,,,,,,,,,,,,,,,,,,,,,,,,,,,,,,,,,,,,,,,,,,,,,18_GV,18,28,F,2022-12-12_09h43.59.205,dynamic target,2022.1.3,120.09575164648815,
0,4,3,2,mix,0,156,156,156,,,,,,,None,694.1830141377003,None,693.2089193039487,None,693.6834459786674,None,1,[0.008919688805235637],[0.5089706822800508],694.1830141377003,None,[1 0 3 0 2 0 2 1],space,0,2.1217151303026185,0.0027849172206515505,None,694.1913374594214,None,1,696.3145328837354,None,None,696.814104249905,None,,,,,,,,,,,,,,,,,,,,,,,,,,,,,,,,,,,,,,,,,,,,,,18_GV,18,28,F,2022-12-12_09h43.59.205,dynamic target,2022.1.3,120.09575164648815,
1,5,3,2,mix,0,157,157,157,,,,,,,None,697.8465548616023,None,696.855723744935,None,697.3469817315076,None,1,[0.008637460768568417],[0.5176578536688794],697.8465548616023,None,[3 1 1 0 1 3 3 0],space,0,4.018086768181092,0.0026399546381981054,None,697.8632002221902,None,1,701.8847720655822,None,None,702.38434503532,None,,,,,,,,,,,,,,,,,,,,,,,,,,,,,,,,,,,,,,,,,,,,,,18_GV,18,28,F,2022-12-12_09h43.59.205,dynamic target,2022.1.3,120.09575164648815,
0,6,1,2,mix,0,158,158,158,,,,,,,None,703.4167831391837,None,702.4426281716178,None,702.9172112919437,None,1,[0.008632650063645997],[0.5168910272650464],703.4167831391837,None,[1 0 1 3 2 1 1 2],space,0,2.1276136962633245,0.0030806152312834456,None,703.433446139024,None,1,705.5649419540314,None,None,706.0645582201158,None,,,,,,,,,,,,,,,,,,,,,,,,,,,,,,,,,,,,,,,,,,,,,,18_GV,18,28,F,2022-12-12_09h43.59.205,dynamic target,2022.1.3,120.09575164648815,
1,5,1,1,mix,0,159,159,159,,,,,,,None,707.0969687426036,None,706.122886897756,None,706.5974081203422,None,1,[0.00867562569646907],[0.5175170603642982],707.0969687426036,None,[3 0 0 3 3 0 0 0],space,0,2.1107480053788095,0.002592489014205057,None,707.1136307803026,None,1,709.2284982325468,None,None,709.7280885208237,None,,,,,,,,,,,,,,,,,,,,,,,,,,,,,,,,,,,,,,,,,,,,,,18_GV,18,28,F,2022-12-12_09h43.59.205,dynamic target,2022.1.3,120.09575164648815,
0,6,3,2,mix,0,160,160,160,,,,,,,None,710.7605240589778,None,709.7864069356256,None,710.2609496460282,None,1,[0.008659910726237285],[0.5171190546898288],710.7605240589778,None,[0 0 0 0 2 2 3 0],space,0,1.6953064115091365,0.0029343697942749714,None,710.7771803238311,None,1,712.4757453866941,None,None,712.9752939821927,None,,,,,,,,,,,,,,,,,,,,,,,,,,,,,,,,,,,,,,,,,,,,,,18_GV,18,28,F,2022-12-12_09h43.59.205,dynamic target,2022.1.3,120.09575164648815,
1,5,3,1,mix,0,161,161,161,,,,,,,None,714.007749404595,None,713.0335719870714,None,713.5081756330728,None,1,[0.00866504214491215],[0.5172588858536074],714.007749404595,None,[1 1 2 1 2 3 3 1],space,0,1.5841185072895314,0.002741941587828478,None,714.0244037451662,None,1,715.6063582769466,None,None,716.1059543380692,None,,,,,,,,,,,,,,,,,,,,,,,,,,,,,,,,,,,,,,,,,,,,,,18_GV,18,28,F,2022-12-12_09h43.59.205,dynamic target,2022.1.3,120.09575164648815,
0,6,2,2,mix,0,162,162,162,,,,,,,None,717.1300869198208,None,716.1392631795684,None,716.6304974333284,None,1,[0.009235271063971595],[0.5175840895226429],717.1300869198208,None,[0 3 2 3 3 1 0 1],space,0,1.6448517357280252,0.0023801765591997537,None,717.1467402982507,None,1,718.7953237380075,None,None,719.2949050463016,None,,,,,,,,,,,,,,,,,,,,,,,,,,,,,,,,,,,,,,,,,,,,,,18_GV,18,28,F,2022-12-12_09h43.59.205,dynamic target,2022.1.3,120.09575164648815,
0,7,3,2,mix,0,163,163,163,,,,,,,None,720.3273386601736,None,719.3532071047057,None,719.8277754722026,None,1,[0.008689416384186188],[0.5171152061257089],720.3273386601736,None,[2 3 0 1 2 1 2 3],space,0,1.4408919480915756,0.0031046687572597875,None,720.3439936421719,None,1,721.7844515443326,None,None,722.2840078369594,None,,,,,,,,,,,,,,,,,,,,,,,,,,,,,,,,,,,,,,,,,,,,,,18_GV,18,28,F,2022-12-12_09h43.59.205,dynamic target,2022.1.3,120.09575164648815,
0,8,2,2,mix,0,164,164,164,,,,,,,None,723.316460052225,None,722.3339658876102,723.3331137513687,722.8168882049849,None,2,"[0.008553754498734634, 0.7755106884246743]","[0.5081365060041207, 1.283203968126145]",723.316460052225,None,[3 3 2 0 0 3 0 3],space,0,2.069260163313629,0.0026688188690968673,None,724.0991495956123,None,1,726.1723387018665,None,None,726.6719331594207,None,,,,,,,,,,,,,,,,,,,,,,,,,,,,,,,,,,,,,,,,,,,,,,18_GV,18,28,F,2022-12-12_09h43.59.205,dynamic target,2022.1.3,120.09575164648815,
1,7,3,1,mix,0,165,165,165,,,,,,,None,727.7043779982719,None,726.721873250106,None,727.2048154517283,None,1,[0.008351384168236109],[0.5168538244788579],727.7043779982719,None,[3 3 1 0 1 1 3 2],space,0,2.7988199581341178,0.002802877186695696,None,727.7210528645182,None,1,730.5186292953986,None,None,731.0182221493845,None,,,,,,,,,,,,,,,,,,,,,,,,,,,,,,,,,,,,,,,,,,,,,,18_GV,18,28,F,2022-12-12_09h43.59.205,dynamic target,2022.1.3,120.09575164648815,
1,8,1,2,mix,0,166,166,166,,,,,,,None,732.0506657053807,None,731.0681676922022,None,731.5510688424738,None,1,[0.008650610029690142],[0.5172858258024462],732.0506657053807,None,[3 2 3 1 2 0 3 3],space,0,4.452622050854643,0.002871509913347836,None,732.0673020859858,None,1,736.5218486192953,None,None,737.0214039497813,None,,,,,,,,,,,,,,,,,,,,,,,,,,,,,,,,,,,,,,,,,,,,,,18_GV,18,28,F,2022-12-12_09h43.59.205,dynamic target,2022.1.3,120.09575164648815,
0,1,1,2,mix,0,167,167,167,,,,,,,None,738.0538449400683,None,737.0713632832872,None,737.5542916942213,None,1,[0.008673701414409152],[0.5176078223348668],738.0538449400683,None,[3 1 2 3 0 3 0 0],space,0,2.463998085717776,0.002575491189418244,None,738.0705137127547,None,0,740.5433976920162,None,None,741.0429655303354,None,,,,,,,,,,,,,,,,,,,,,,,,,,,,,,,,,,,,,,,,,,,,,,18_GV,18,28,F,2022-12-12_09h43.59.205,dynamic target,2022.1.3,120.09575164648815,
1,8,4,1,mix,0,168,168,168,,,,,,,None,742.0754318570025,None,741.0929453895164,None,741.5758571233396,None,1,[0.008228871542996785],[0.5169734506803252],742.0754318570025,None,[3 0 2 3 0 1 1 2],space,0,2.970830249194478,0.0025883197358780308,None,742.0920916497062,None,1,745.072876731132,None,None,745.5724513044387,None,,,,,,,,,,,,,,,,,,,,,,,,,,,,,,,,,,,,,,,,,,,,,,18_GV,18,28,F,2022-12-12_09h43.59.205,dynamic target,2022.1.3,120.09575164648815,
1,3,3,0,mix,0,169,169,169,,,,,,,None,746.604885880452,None,745.6307642671081,746.6298518366953,746.1053133917844,None,2,"[0.00868524710631391, 0.7754577706677992]","[0.5171755002970713, 1.283213910250197]",746.604885880452,None,[0 0 2 0 0 1 0 1],space,0,2.474949816384651,0.0027727301007871574,None,747.3875911388095,None,1,749.860435028861,None,None,750.360005112176,None,,,,,,,,,,,,,,,,,,,,,,,,,,,,,,,,,,,,,,,,,,,,,,18_GV,18,28,F,2022-12-12_09h43.59.205,dynamic target,2022.1.3,120.09575164648815,
1,4,4,2,mix,0,170,170,170,,,,,,,None,751.3924760891917,None,750.4016550750052,None,750.8928963844664,None,1,[0.008668890709031984],[0.5089507980319468],751.3924760891917,None,[0 0 1 1 1 3 0 0],space,0,2.253637494501163,0.0028519463794509647,None,751.4007971659175,None,1,753.657195243431,None,None,754.156782645285,None,,,,,,,,,,,,,,,,,,,,,,,,,,,,,,,,,,,,,,,,,,,,,,18_GV,18,28,F,2022-12-12_09h43.59.205,dynamic target,2022.1.3,120.09575164648815,
1,5,2,2,mix,0,171,171,171,,,,,,,None,755.1892332569819,None,754.206801952248,None,754.6896533918998,None,1,[0.008640347191885667],[0.5172729972550769],755.1892332569819,None,[3 1 1 1 2 2 3 3],space,0,1.056636552244072,0.0027384137374610873,None,755.2058908046897,None,1,756.2632850830296,None,None,756.7628724848831,None,,,,,,,,,,,,,,,,,,,,,,,,,,,,,,,,,,,,,,,,,,,,,,18_GV,18,28,F,2022-12-12_09h43.59.205,dynamic target,2022.1.3,120.09575164648815,
0,6,2,2,mix,0,172,172,172,,,,,,,None,757.7953198894434,None,756.8045391248238,None,757.2957602293232,None,1,[0.009314487342180655],[0.5174320712394547],757.7953198894434,None,[0 0 2 3 1 2 0 2],space,0,1.5862118054637904,0.0026239189542138774,None,757.8119870585615,None,1,759.4023141416128,None,None,759.9018729999492,None,,,,,,,,,,,,,,,,,,,,,,,,,,,,,,,,,,,,,,,,,,,,,,18_GV,18,28,F,2022-12-12_09h43.59.205,dynamic target,2022.1.3,120.09575164648815,
0,7,3,2,mix,0,173,173,173,,,,,,,None,760.9343181595141,None,759.9518127699207,None,760.4347360494362,None,1,[0.007857805818275665],[0.5167579310891597],760.9343181595141,None,[3 1 0 3 0 1 3 3],space,0,2.7504229813093843,0.0025479098130745115,None,760.9509561436876,None,1,763.6986237534661,None,None,764.1981890260757,None,,,,,,,,,,,,,,,,,,,,,,,,,,,,,,,,,,,,,,,,,,,,,,18_GV,18,28,F,2022-12-12_09h43.59.205,dynamic target,2022.1.3,120.09575164648815,
1,6,4,1,mix,0,174,174,174,,,,,,,None,765.2306444484784,None,764.2481493217224,None,764.7310796569391,None,1,[0.008651572170492727],[0.5176710029295464],765.2306444484784,None,[1 0 0 3 1 0 0 0],space,0,1.366383105053501,0.0024488092867613886,None,765.2473087311732,None,1,766.6127943590313,None,None,767.1123721394746,None,,,,,,,,,,,,,,,,,,,,,,,,,,,,,,,,,,,,,,,,,,,,,,18_GV,18,28,F,2022-12-12_09h43.59.205,dynamic target,2022.1.3,120.09575164648815,
1,7,2,2,mix,0,175,175,175,,,,,,,None,768.1448099226245,None,767.1707114006658,None,767.6452422446623,None,1,[0.008603465118540043],[0.5171649167459691],768.1448099226245,None,[3 2 3 2 2 2 2 2],space,0,1.4761832811896056,0.0026896652584582625,None,768.1614960138495,None,1,769.6352090379678,None,None,770.1347909876889,None,,,,,,,,,,,,,,,,,,,,,,,,,,,,,,,,,,,,,,,,,,,,,,18_GV,18,28,F,2022-12-12_09h43.59.205,dynamic target,2022.1.3,120.09575164648815,
0,8,1,2,mix,0,176,176,176,,,,,,,None,771.1672473722324,None,770.1847435862073,None,770.6676681485778,None,1,[0.00863842290982575],[0.5176754929207164],771.1672473722324,None,[3 2 2 2 2 1 2 0],space,0,2.356843155995648,0.0019584380734158913,None,771.1839017128036,None,1,773.5402062702087,None,None,774.0397760328104,None,,,,,,,,,,,,,,,,,,,,,,,,,,,,,,,,,,,,,,,,,,,,,,18_GV,18,28,F,2022-12-12_09h43.59.205,dynamic target,2022.1.3,120.09575164648815,
0,1,2,2,mix,0,177,177,177,,,,,,,None,775.0722162213127,None,774.0897530055681,None,774.5726660222458,None,1,[0.008620783657534048],[0.5086919820942057],775.0722162213127,None,[2 1 2 3 2 0 3 0],space,0,3.069533411367047,0.0029019777130088187,None,775.0805652001286,None,1,778.1529464286286,None,None,778.6525117012383,None,,,,,,,,,,,,,,,,,,,,,,,,,,,,,,,,,,,,,,,,,,,,,,18_GV,18,28,F,2022-12-12_09h43.59.205,dynamic target,2022.1.3,120.09575164648815,
0,1,1,0,mix,0,178,178,178,,,,,,,None,779.6850072128505,None,778.7024662240392,None,779.1853949556871,None,1,[0.008784989060586668],[0.5175651674157962],779.6850072128505,None,[0 0 0 2 0 0 1 0],space,0,1.8709545578158213,0.0026312953691558505,None,779.7016166535068,None,1,781.5749960071148,None,None,782.0745802018317,None,,,,,,,,,,,,,,,,,,,,,,,,,,,,,,,,,,,,,,,,,,,,,,18_GV,18,28,F,2022-12-12_09h43.59.205,dynamic target,2022.1.3,120.09575164648815,
0,2,4,2,mix,0,179,179,179,,,,,,,None,783.1070250406824,None,782.1245504396024,None,782.6074442134591,None,1,[0.00864515789635334],[0.517386529896612],783.1070250406824,None,[2 2 0 1 0 2 1 1],space,0,2.59375787758745,0.002656952462530171,None,783.1236694391296,None,1,785.7214588880347,None,space,786.2293683287548,None,0.6930623779062444,,,,,,,,,,,,,,,,,,,,,,,,,,,,,,,,,,,,,,,,,,,,,18_GV,18,28,F,2022-12-12_09h43.59.205,dynamic target,2022.1.3,120.09575164648815,
0,3,2,2,mix,0,180,180,180,,,,,,,None,787.9612404691911,None,786.9704135218021,None,787.4616590005403,None,1,[0.008662476435347344],[0.5175831273818403],787.9612404691911,None,[2 3 3 3 3 2 0 3],space,0,2.2345271285867057,0.0025697183418742497,None,787.9778839054975,None,1,790.2176061546238,None,None,790.7172041400289,None,,,,,,,,,,,,,,,,,,,,,,,,,,,,,,,,,,,,,,,,,,,,,,18_GV,18,28,F,2022-12-12_09h43.59.205,dynamic target,2022.1.3,120.09575164648815,
1,4,3,2,mix,0,181,181,181,,,,,,,None,791.7496464131705,None,790.7588185036398,None,791.2500803387761,None,1,[0.0094328306895477],[0.5174808197180027],791.7496464131705,None,[2 2 1 0 0 2 1 3],space,0,2.189948889522384,0.0026960795312334085,None,791.7662965844634,None,1,793.9560946182323,None,None,794.4556829822267,None,,,,,,,,,,,,,,,,,,,,,,,,,,,,,,,,,,,,,,,,,,,,,,18_GV,18,28,F,2022-12-12_09h43.59.205,dynamic target,2022.1.3,120.09575164648815,
0,5,4,2,mix,0,182,182,182,,,,,,,None,795.4881140303892,None,794.5056868949337,None,794.9885389760125,None,1,[0.008333744915944408],[0.5167948131620506],795.4881140303892,None,[3 2 1 1 1 1 2 1],space,0,1.7315855427341376,0.0029244276693134452,None,795.5047783130844,None,1,797.2366344178376,None,None,797.7361868618999,None,,,,,,,,,,,,,,,,,,,,,,,,,,,,,,,,,,,,,,,,,,,,,,18_GV,18,28,F,2022-12-12_09h43.59.205,dynamic target,2022.1.3,120.09575164648815,
0,6,2,2,mix,0,183,183,183,,,,,,,None,798.7686499814304,None,797.7861522889657,None,798.2691044327116,None,1,[0.008627518644061638],[0.5176075016206596],798.7686499814304,None,[1 1 2 0 0 2 1 2],space,0,1.2671988723641334,0.00254758909886732,None,798.7853094534207,None,1,800.0508815456856,None,None,800.5504602882701,None,,,,,,,,,,,,,,,,,,,,,,,,,,,,,,,,,,,,,,,,,,,,,,18_GV,18,28,F,2022-12-12_09h43.59.205,dynamic target,2022.1.3,120.09575164648815,
0,7,2,2,mix,0,184,184,184,,,,,,,None,801.5829102585399,None,800.600404868947,None,801.0833727276636,None,1,[0.00865125145719503],[0.5175013453936117],801.5829102585399,None,[1 0 0 2 1 2 3 0],space,0,2.1165048158945865,0.002688382402084244,None,801.5995700512435,None,1,803.7144375034873,None,None,804.2140043796661,None,,,,,,,,,,,,,,,,,,,,,,,,,,,,,,,,,,,,,,,,,,,,,,18_GV,18,28,F,2022-12-12_09h43.59.205,dynamic target,2022.1.3,120.09575164648815,
1,8,1,2,mix,0,185,185,185,,,,,,,None,805.2464405592477,None,804.25564343823,None,804.7468818612683,None,1,[0.009068179238056473],[0.5177479742123978],805.2464405592477,None,[3 2 1 1 1 2 2 1],space,0,2.1804657067850712,0.002418662200398103,None,805.2631080490796,None,0,807.4528910093054,None,None,807.9524665447524,None,,,,,,,,,,,,,,,,,,,,,,,,,,,,,,,,,,,,,,,,,,,,,,18_GV,18,28,F,2022-12-12_09h43.59.205,dynamic target,2022.1.3,120.09575164648815,
0,1,3,2,mix,0,186,186,186,,,,,,,None,808.9849363992703,None,808.0107689238707,None,808.4853465920646,None,1,[0.008659910726237285],[0.5171043018608543],808.9849363992703,None,[1 0 3 2 0 0 0 3],space,0,2.2508613969066573,0.002927314092630695,None,809.0015791941491,None,1,811.2496573174353,None,None,811.7492241936133,None,,,,,,,,,,,,,,,,,,,,,,,,,,,,,,,,,,,,,,,,,,,,,,18_GV,18,28,F,2022-12-12_09h43.59.205,dynamic target,2022.1.3,120.09575164648815,
1,2,3,2,mix,0,187,187,187,,,,,,,None,812.7816825024388,None,811.7908699871646,None,812.2821019959297,None,1,[0.008183330201063654],[0.5171876874164809],812.7816825024388,None,[0 2 0 0 0 3 1 1],space,0,2.9486471255331708,0.002458109982399037,None,812.7983560858306,None,1,815.7458081118752,None,None,816.2453502931002,None,,,,,,,,,,,,,,,,,,,,,,,,,,,,,,,,,,,,,,,,,,,,,,18_GV,18,28,F,2022-12-12_09h43.59.205,dynamic target,2022.1.3,120.09575164648815,
1,3,4,2,mix,0,188,188,188,,,,,,,None,817.2695136633652,None,816.2786783774195,None,816.7699482303983,None,1,[0.008684605679263768],[0.5174522762008564],817.2695136633652,None,[2 1 0 0 1 3 3 3],space,0,1.5972081153322506,0.0027018523778679082,None,817.286152609679,None,0,818.8931298640241,None,None,819.3926938537787,None,,,,,,,,,,,,,,,,,,,,,,,,,,,,,,,,,,,,,,,,,,,,,,18_GV,18,28,F,2022-12-12_09h43.59.205,dynamic target,2022.1.3,120.09575164648815,
0,4,2,2,mix,0,189,189,189,,,,,,,None,820.4251521626043,None,819.4426570358487,None,819.9255790325092,None,1,[0.008617576520009607],[0.5175186639316962],820.4251521626043,None,[2 1 0 1 0 2 0 1],space,0,2.7938290118809164,0.002572284051893803,None,820.4418061824613,None,1,823.2394117982863,None,None,823.7389866923066,None,,,,,,,,,,,,,,,,,,,,,,,,,,,,,,,,,,,,,,,,,,,,,,18_GV,18,28,F,2022-12-12_09h43.59.205,dynamic target,2022.1.3,120.09575164648815,
1,5,1,2,mix,0,190,190,190,,,,,,,None,824.771438586859,None,823.7806039423408,None,824.2718763610287,None,1,[0.008633932918201026],[0.5175359824706902],824.771438586859,None,[2 3 1 1 0 0 3 3],space,0,4.126916785441608,0.0024706178164706216,None,824.7880980588484,None,1,828.9178876770898,None,None,829.4174532704136,None,,,,,,,,,,,,,,,,,,,,,,,,,,,,,,,,,,,,,,,,,,,,,,18_GV,18,28,F,2022-12-12_09h43.59.205,dynamic target,2022.1.3,120.09575164648815,
0,6,4,2,mix,0,191,191,191,,,,,,,None,830.4499189556532,None,829.4591000261057,None,829.9503602576738,None,1,[0.00864227147303609],[0.5174984589702945],830.4499189556532,None,[3 0 0 0 1 0 0 3],space,0,2.496514924789153,0.002659838884937926,None,830.4665694476603,None,1,832.9644216281608,None,None,833.4639958807537,None,,,,,,,,,,,,,,,,,,,,,,,,,,,,,,,,,,,,,,,,,,,,,,18_GV,18,28,F,2022-12-12_09h43.59.205,dynamic target,2022.1.3,120.09575164648815,
1,7,3,2,mix,0,192,192,192,,,,,,,None,834.4964535481517,None,833.5139625906736,None,833.9969006230181,None,1,[0.008652534311295312],[0.517324632157397],834.4964535481517,None,[3 1 0 3 3 3 1 1],space,0,1.9859191863042724,0.0028240442889000406,None,834.5131123787137,None,1,836.5030669848998,None,None,837.0026537453267,None,,,,,,,,,,,,,,,,,,,,,,,,,,,,,,,,,,,,,,,,,,,,,,18_GV,18,28,F,2022-12-12_09h43.59.205,dynamic target,2022.1.3,120.09575164648815,
0,8,1,2,mix,0,193,193,193,,,,,,,None,838.0350892834808,None,837.0526114752633,None,837.5355270576506,None,1,[0.009424812847100839],[0.5175436795989299],838.0350892834808,None,[0 3 1 3 0 2 0 1],space,0,2.1103365297303753,0.0025883197358780308,None,838.0517481140428,None,1,840.1666085105867,None,None,840.6661818010379,None,,,,,,,,,,,,,,,,,,,,,,,,,,,,,,,,,,,,,,,,,,,,,,18_GV,18,28,F,2022-12-12_09h43.59.205,dynamic target,2022.1.3,120.09575164648815,
0,1,1,2,mix,0,194,194,194,,,,,,,None,841.6986308091668,None,840.7245152893834,None,841.199082694739,None,1,[0.00863874362403294],[0.5169208536372025],841.6986308091668,None,[1 3 0 1 0 2 2 1],space,0,1.64758646125847,0.0031075551796675427,None,841.7153108068319,None,1,843.3638692309219,None,None,843.8634585570579,None,,,,,,,,,,,,,,,,,,,,,,,,,,,,,,,,,,,,,,,,,,,,,,18_GV,18,28,F,2022-12-12_09h43.59.205,dynamic target,2022.1.3,120.09575164648815,
1,8,3,1,mix,0,195,195,195,,,,,,,None,844.895894095212,None,843.9217394483599,None,844.3963318693818,None,1,[0.00855150950337702],[0.5169683192616503],844.895894095212,None,[0 0 2 2 3 3 0 0],space,0,3.409429936305969,0.002979269708703214,None,844.9125612643306,None,1,848.3263027549942,None,None,848.8258888739937,None,,,,,,,,,,,,,,,,,,,,,,,,,,,,,,,,,,,,,,,,,,,,,,18_GV,18,28,F,2022-12-12_09h43.59.205,dynamic target,2022.1.3,120.09575164648815,
0,4,1,0,mix,0,196,196,196,,,,,,,None,849.8583269778569,None,848.8758366618072,None,849.3587519234802,None,1,[0.007697769692640577],[0.5161713457719088],849.8583269778569,None,[2 3 0 0 1 0 0 3],space,0,2.2868955028816345,0.0028410421136868536,None,849.8749864498473,None,1,852.1647204691658,None,None,852.6642793275022,None,,,,,,,,,,,,,,,,,,,,,,,,,,,,,,,,,,,,,,,,,,,,,,18_GV,18,28,F,2022-12-12_09h43.59.205,dynamic target,2022.1.3,120.09575164648815,
1,5,1,2,mix,0,197,197,197,,,,,,,None,853.696703319964,None,852.7142293603106,None,853.1971481498344,None,1,[0.008625915075754165],[0.5176184058864237],853.696703319964,None,[0 3 0 3 2 3 2 3],space,0,2.7677735912748176,0.002411927212961018,None,853.7134064090137,None,1,856.4860024515351,None,None,856.9855978712311,None,,,,,,,,,,,,,,,,,,,,,,,,,,,,,,,,,,,,,,,,,,,,,,18_GV,18,28,F,2022-12-12_09h43.59.205,dynamic target,2022.1.3,120.09575164648815,
0,6,3,2,mix,0,198,198,198,,,,,,,None,858.0180285986803,None,857.035541169053,None,857.5184419986103,None,1,[0.009163431200249761],[0.5174355990902768],858.0180285986803,None,[2 1 2 3 0 3 0 1],space,0,2.191127512287494,0.002504292752746551,None,858.0346983335071,None,1,860.2244828973021,None,None,860.7240516977616,None,,,,,,,,,,,,,,,,,,,,,,,,,,,,,,,,,,,,,,,,,,,,,,18_GV,18,28,F,2022-12-12_09h43.59.205,dynamic target,2022.1.3,120.09575164648815,
1,7,4,2,mix,0,199,199,199,,,,,,,None,861.7565019887456,None,860.7823274576454,None,861.2569218029498,None,1,[0.008701282790752884],[0.5175007039670163],861.7565019887456,None,[0 3 1 1 1 0 1 1],space,0,2.9481683000121848,0.0027297544675093377,None,861.7731438214828,None,1,864.7206279188954,None,None,865.2202188485998,None,,,,,,,,,,,,,,,,,,,,,,,,,,,,,,,,,,,,,,,,,,,,,,18_GV,18,28,F,2022-12-12_09h43.59.205,dynamic target,2022.1.3,120.09575164648815,
1,8,1,2,mix,0,200,200,200,,,,,,,None,866.2526553488947,None,865.2784865906401,None,865.7530793323763,None,1,[0.008618538661721686],[0.5169612635609155],866.2526553488947,None,[1 2 1 2 0 2 0 3],space,0,2.4042475239875785,0.0031123658854994574,None,866.269312255175,None,1,868.6755785514392,None,None,869.1751614633012,None,,,,,,,,,,,,,,,,,,,,,,,,,,,,,,,,,,,,,,,,,,,,,,18_GV,18,28,F,2022-12-12_09h43.59.205,dynamic target,2022.1.3,120.09575164648815,
1,7,4,1,mix,0,201,201,201,,,,,,,None,870.2076117542842,None,869.2334433167439,None,869.7080354170525,None,1,[0.008659269298732397],[0.5170802483353327],870.2076117542842,None,[0 2 1 0 3 2 2 0],space,0,1.7925205000765345,0.0030527131411872688,None,870.2242757162662,None,1,872.014413514105,None,None,872.5139871252703,None,,,,,,,,,,,,,,,,,,,,,,,,,,,,,,,,,,,,,,,,,,,,,,18_GV,18,28,F,2022-12-12_09h43.59.205,dynamic target,2022.1.3,120.09575164648815,
1,8,2,2,mix,0,202,202,202,,,,,,,None,873.5464508862283,None,872.572275072273,None,873.0468530611802,None,1,[0.008729826307899202],[0.5171312418096932],873.5464508862283,None,[3 0 3 1 2 1 2 3],space,0,1.605809656168276,0.002909354127041297,None,873.563078607564,None,1,875.1700401469384,None,None,875.6695964395648,None,,,,,,,,,,,,,,,,,,,,,,,,,,,,,,,,,,,,,,,,,,,,,,18_GV,18,28,F,2022-12-12_09h43.59.205,dynamic target,2022.1.3,120.09575164648815,
1,1,3,2,mix,0,203,203,203,,,,,,,None,876.7020832919075,None,875.719561225203,876.7186956189867,876.2024761661628,None,2,"[0.008633932918201026, 0.8338292635835387]","[0.23336185547032073, 1.341412859207594]",876.7020832919075,None,[0 2 3 0 0 2 2 3],space,0,1.1945001373233026,0.0028596435076906346,None,877.5430256641498,None,1,878.7420073340804,None,None,879.2415549674378,None,,,,,,,,,,,,,,,,,,,,,,,,,,,,,,,,,,,,,,,,,,,,,,18_GV,18,28,F,2022-12-12_09h43.59.205,dynamic target,2022.1.3,120.09575164648815,
1,2,4,2,mix,0,204,204,204,,,,,,,None,880.2740171248274,None,879.29153578876,None,879.7744305247584,None,1,[0.008638102196528052],[0.5171023775792492],880.2740171248274,None,[2 2 1 0 2 0 2 1],space,0,2.9579494257559418,0.002922503387708275,None,880.2906849353726,None,1,883.2464803277439,None,None,883.7460456003536,None,,,,,,,,,,,,,,,,,,,,,,,,,,,,,,,,,,,,,,,,,,,,,,18_GV,18,28,F,2022-12-12_09h43.59.205,dynamic target,2022.1.3,120.09575164648815,
0,3,3,2,mix,0,205,205,205,,,,,,,None,884.7785180205806,None,883.7959901810295,None,884.27892083696,None,1,[0.00808294682065025],[0.5168490137739354],884.7785180205806,None,[3 0 2 2 0 1 3 1],space,0,0.8698426434957582,0.0026668945865822025,None,884.7951739647201,None,0,885.6693916638819,None,None,886.168978424308,None,,,,,,,,,,,,,,,,,,,,,,,,,,,,,,,,,,,,,,,,,,,,,,18_GV,18,28,F,2022-12-12_09h43.59.205,dynamic target,2022.1.3,120.09575164648815,
0,1,1,0,mix,0,206,206,206,,,,,,,None,887.2014264702962,None,886.2189403235229,None,886.7018520573461,None,1,[0.00860474797354982],[0.5172704315455121],887.2014264702962,None,[2 3 2 0 0 2 2 1],space,0,3.165703897626372,0.002814102165757504,None,887.2180622094734,None,1,890.3903723678227,None,None,890.889936036864,None,,,,,,,,,,,,,,,,,,,,,,,,,,,,,,,,,,,,,,,,,,,,,,18_GV,18,28,F,2022-12-12_09h43.59.205,dynamic target,2022.1.3,120.09575164648815,
1,2,2,2,mix,0,207,207,207,,,,,,,None,891.9224068535227,None,890.9482615073671,None,891.4228167256028,None,1,[0.008626556503259053],[0.5168996865340887],891.9224068535227,None,[3 2 3 0 2 1 1 0],space,0,2.125661832820697,0.003117497303719574,None,891.9390435548416,None,1,894.0622303198866,None,None,894.5618039310519,None,,,,,,,,,,,,,,,,,,,,,,,,,,,,,,,,,,,,,,,,,,,,,,18_GV,18,28,F,2022-12-12_09h43.59.205,dynamic target,2022.1.3,120.09575164648815,
1,3,4,2,mix,0,208,208,208,,,,,,,None,895.5942532598942,None,894.620087388063,None,895.09468109194,None,1,[0.008604106546044932],[0.5170157848860981],895.5942532598942,None,[0 0 3 1 1 3 2 0],space,0,1.3654293025756488,0.0029491226241589175,None,895.6108963754864,None,1,896.9764006047376,None,None,897.4759857615953,None,,,,,,,,,,,,,,,,,,,,,,,,,,,,,,,,,,,,,,,,,,,,,,18_GV,18,28,F,2022-12-12_09h43.59.205,dynamic target,2022.1.3,120.09575164648815,
0,4,4,2,mix,0,209,209,209,,,,,,,None,898.5001029490909,None,897.5092891509616,None,898.000537516124,None,1,[0.009050219272467075],[0.5176103880448863],898.5001029490909,None,[0 2 3 0 3 2 2 1],space,0,1.8504256753039954,0.0025726047661009943,None,898.5167576103754,None,1,900.3651783841547,None,None,900.8647378839186,None,,,,,,,,,,,,,,,,,,,,,,,,,,,,,,,,,,,,,,,,,,,,,,18_GV,18,28,F,2022-12-12_09h43.59.205,dynamic target,2022.1.3,120.09575164648815,
0,5,2,2,mix,0,210,210,210,,,,,,,None,901.8972045312989,None,900.9146956138552,None,901.3976176105166,None,1,[0.00868107782844163],[0.5170921147409899],901.8972045312989,None,[0 0 0 2 3 1 2 1],space,0,2.05410291419048,0.0029834389861207455,None,901.9138530990244,None,1,903.9704160875112,None,None,904.4699820015484,None,,,,,,,,,,,,,,,,,,,,,,,,,,,,,,,,,,,,,,,,,,,,,,18_GV,18,28,F,2022-12-12_09h43.59.205,dynamic target,2022.1.3,120.09575164648815,
1,6,2,2,mix,0,211,211,211,,,,,,,None,905.5024614774761,None,904.5116447929245,None,905.0029127216208,None,1,[0.008943742331211979],[0.5178534890119408],905.5024614774761,None,[3 3 2 2 1 0 1 0],space,0,1.583883744877312,0.0022993567117737257,None,905.5191081209191,None,1,907.1010976104903,None,None,907.6006596759634,None,,,,,,,,,,,,,,,,,,,,,,,,,,,,,,,,,,,,,,,,,,,,,,18_GV,18,28,F,2022-12-12_09h43.59.205,dynamic target,2022.1.3,120.09575164648815,
1,7,3,2,mix,0,212,212,212,,,,,,,None,908.633113174084,None,907.6589880328897,None,908.1335564003862,None,1,[0.008731750590413867],[0.517467991171543],908.633113174084,None,[0 0 1 3 1 0 1 1],space,0,2.053346350625361,0.002480559940522653,None,908.6497566103903,None,1,910.7063301824287,None,None,911.2059121321498,None,,,,,,,,,,,,,,,,,,,,,,,,,,,,,,,,,,,,,,,,,,,,,,18_GV,18,28,F,2022-12-12_09h43.59.205,dynamic target,2022.1.3,120.09575164648815,
0,8,3,2,mix,0,213,213,213,,,,,,,None,912.2383733273978,None,911.2642064934257,None,911.7387918587469,None,1,[0.008701282790752884],[0.5171780660066361],912.2383733273978,None,[2 0 1 2 2 0 2 2],space,0,1.9998304627897596,0.0027659951128953253,None,912.2550180465582,None,1,914.2532910034038,None,None,914.7529018173562,None,,,,,,,,,,,,,,,,,,,,,,,,,,,,,,,,,,,,,,,,,,,,,,18_GV,18,28,F,2022-12-12_09h43.59.205,dynamic target,2022.1.3,120.09575164648815,
0,1,4,2,mix,0,214,214,214,,,,,,,None,915.7853322240912,None,914.8028438323231,None,915.2857914860783,None,1,[0.008647082178868004],[0.5171578610452343],915.7853322240912,None,[0 3 0 1 3 2 2 3],space,0,2.004980803741091,0.0028487392419265234,None,915.8019714911193,None,1,917.8085897385731,None,None,918.3081781025684,None,,,,,,,,,,,,,,,,,,,,,,,,,,,,,,,,,,,,,,,,,,,,,,18_GV,18,28,F,2022-12-12_09h43.59.205,dynamic target,2022.1.3,120.09575164648815,
0,2,3,2,mix,0,215,215,215,,,,,,,None,919.3406436274516,None,918.3665292301653,None,918.8327301778104,None,1,[0.00864836503387778],[0.5164801930441172],919.3406436274516,None,[3 1 1 3 2 1 2 1],space,0,1.881939963419427,0.0035408393587204046,None,919.3489659870315,None,1,921.230647014188,None,None,921.7302417924556,None,,,,,,,,,,,,,,,,,,,,,,,,,,,,,,,,,,,,,,,,,,,,,,18_GV,18,28,F,2022-12-12_09h43.59.205,dynamic target,2022.1.3,120.09575164648815,
1,3,1,2,mix,0,216,216,216,,,,,,,None,922.7627058741277,None,921.7885698286686,922.7876833760633,922.2547973955484,None,3,"[0.008666325000376673, 0.9501562837758684, 1.1163869936499395]","[0.11690654980702675, 1.1082479219357992, 1.6248374783444888]",922.7627058741277,None,[3 2 0 3 2 1 3 0],space,0,2.215699632135511,0.0027599015529631288,None,923.878425462613,None,1,926.0931945840443,None,None,926.5927675537822,None,,,,,,,,,,,,,,,,,,,,,,,,,,,,,,,,,,,,,,,,,,,,,,18_GV,18,28,F,2022-12-12_09h43.59.205,dynamic target,2022.1.3,120.09575164648815,
