tar_letter,tar_pos,tar_ori,tar_pos_type,block,trials.thisRepN,trials.thisTrialN,trials.thisN,trials.thisIndex,instructions_key.keys,instructions_key.rt,instructions_key.started,instructions_key.stopped,instruction_text.started,instruction_text.stopped,fix_key.keys,fix_key.started,fix_key.stopped,fixcross.started,fixcross.stopped,roi.started,roi.stopped,roi.numLooks,roi.timesOn,roi.timesOff,RedFixCross.started,RedFixCross.stopped,distori,search_resp.keys,search_resp.corr,search_resp.rt,search_resp.started,search_resp.stopped,fixcross_shape.started,fixcross_shape.stopped,correct,feedback_text.started,feedback_text.stopped,break_key.keys,break_key.started,break_key.stopped,break_key.rt,fix_key.rt,text_q1.started,text_q1.stopped,key_resp1.keys,key_resp1.rt,key_resp1.started,key_resp1.stopped,text_q2.started,text_q2.stopped,key_resp_2.keys,key_resp_2.rt,key_resp_2.started,key_resp_2.stopped,image.started,image.stopped,text_q1_2.started,text_q1_2.stopped,slider.response,slider.rt,slider.started,slider.stopped,mouse.x,mouse.y,mouse.leftButton,mouse.midButton,mouse.rightButton,mouse.time,mouse.started,mouse.stopped,key_resp_3.keys,key_resp_3.rt,key_resp_3.started,key_resp_3.stopped,text_q4.started,text_q4.stopped,key_resp1_3.keys,key_resp1_3.rt,key_resp1_3.started,key_resp1_3.stopped,finish_text.started,finish_text.stopped,key_resp.keys,key_resp.rt,key_resp.started,key_resp.stopped,participant,group,age,gender,date,expName,psychopyVersion,frameRate,
,,,,,,,,,space,1.282395236996308,84.51601708249291,None,,,,,,,,,,,,,,,,,,,,,,,,,,,,,,,,,,,,,,,,,,,,,,,,,,,,,,,,,,,,,,,,,,,,,,,,,,,19_DA,19,24,F,2022-12-12_12h18.49.973,dynamic target,2022.1.3,120.11148091548746,
1,4,4,0,L,0,0,0,0,,,,,84.51601708249291,None,None,119.1114294016188,None,118.13000866568291,None,118.61184216012225,None,1,[0.008932196638852474],[0.5175177017918031],119.1114294016188,None,[3 1 2 2 0 1 3 1],space,0,4.819181095830572,0.0070118914227350615,None,119.13641844924678,None,1,123.95729088024927,None,None,124.45684290738481,None,,,,,,,,,,,,,,,,,,,,,,,,,,,,,,,,,,,,,,,,,,,,,,,19_DA,19,24,F,2022-12-12_12h18.49.973,dynamic target,2022.1.3,120.11148091548746,
1,3,2,2,L,0,1,1,1,,,,,,,None,125.48931895167698,None,124.5234730340726,None,124.98973908659354,None,1,[0.008617255805802415],[0.5175975594956981],125.48931895167698,None,[0 0 3 2 0 0 2 1],space,0,2.0128122994774458,0.0024461473622068297,None,125.5059752165289,None,1,127.52089642038663,None,None,128.02048051888832,None,,,,,,,,,,,,,,,,,,,,,,,,,,,,,,,,,,,,,,,,,,,,,,,19_DA,19,24,F,2022-12-12_12h18.49.973,dynamic target,2022.1.3,120.11148091548746,
1,2,4,2,L,0,2,2,2,,,,,,,None,129.0529200018209,None,128.07048196210053,None,128.55335809670578,None,1,[0.009055992117282585],[0.5171456739244604],129.0529200018209,None,[3 1 0 2 0 3 3 2],space,0,1.8579348537950864,0.002835173052517348,None,129.06961924230745,None,1,130.9263288610873,None,None,131.42591295959082,None,,,,,,,,,,,,,,,,,,,,,,,,,,,,,,,,,,,,,,,,,,,,,,,19_DA,19,24,F,2022-12-12_12h18.49.973,dynamic target,2022.1.3,120.11148091548746,
1,3,2,1,L,0,3,3,3,,,,,,,None,132.45835725322831,None,131.48422569776085,None,131.95878476455982,None,1,[0.008647082178868004],[0.5171703688793059],132.45835725322831,None,[2 2 2 3 2 3 2 3],space,0,1.7479849043702416,0.0028884115235996433,None,132.4750215359236,None,1,134.22351626627642,None,None,134.72309555407318,None,,,,,,,,,,,,,,,,,,,,,,,,,,,,,,,,,,,,,,,,,,,,,,,19_DA,19,24,F,2022-12-12_12h18.49.973,dynamic target,2022.1.3,120.11148091548746,
1,2,2,2,L,0,4,4,4,,,,,,,None,135.74721861062972,None,134.7564057746422,None,135.24764451839292,None,1,[0.0086531757388002],[0.5177088471427851],135.74721861062972,None,[2 0 2 1 0 2 1 3],space,0,3.7544062336255593,0.0023367839967249893,None,135.7639030982864,None,1,139.51900004040908,None,None,140.01856233038106,None,,,,,,,,,,,,,,,,,,,,,,,,,,,,,,,,,,,,,,,,,,,,,,,19_DA,19,24,F,2022-12-12_12h18.49.973,dynamic target,2022.1.3,120.11148091548746,
1,1,3,2,L,0,5,5,5,,,,,,,None,141.05100309616864,None,140.06852208081546,None,140.55144247390854,None,1,[0.008674984268509434],[0.5170879454635724],141.05100309616864,None,[3 3 3 0 0 1 2 0],space,0,3.4912427010822285,0.0030359398151631467,None,141.06766962386064,None,1,144.55636158029665,None,None,145.05596075234152,None,,,,,,,,,,,,,,,,,,,,,,,,,,,,,,,,,,,,,,,,,,,,,,,19_DA,19,24,F,2022-12-12_12h18.49.973,dynamic target,2022.1.3,120.11148091548746,
1,8,1,2,L,0,6,6,6,,,,,,,None,146.0883793888861,None,145.1058794514247,None,145.5888219737608,None,1,[0.008547981653464376],[0.5171087918533885],146.0883793888861,None,[3 2 0 0 0 3 1 0],space,0,3.285098211872537,0.0028633958572754636,None,146.10501865591323,None,1,149.39388225831135,None,None,149.89346828109646,None,,,,,,,,,,,,,,,,,,,,,,,,,,,,,,,,,,,,,,,,,,,,,,,19_DA,19,24,F,2022-12-12_12h18.49.973,dynamic target,2022.1.3,120.11148091548746,
1,7,4,2,L,0,7,7,7,,,,,,,None,150.92589236977255,None,149.95181116635104,None,150.4263455381988,None,1,[0.008563696623241412],[0.5169971834930038],150.92589236977255,None,[2 0 1 1 1 1 2 0],space,0,3.3598700401253154,0.002697266172617674,None,150.94256114245945,None,1,154.30637328634657,None,None,154.805924992767,None,,,,,,,,,,,,,,,,,,,,,,,,,,,,,,,,,,,,,,,,,,,,,,,19_DA,19,24,F,2022-12-12_12h18.49.973,dynamic target,2022.1.3,120.11148091548746,
1,6,1,2,L,0,8,8,8,,,,,,,None,155.8383917363626,None,154.85589917531615,None,155.3388125127076,None,1,[0.008729505592782516],[0.5173326499989344],155.8383917363626,None,[3 0 2 1 2 1 1 2],space,0,1.7111150185501174,0.0026591012447170215,None,155.85503132410486,None,1,157.5702481618282,None,None,158.0698088482337,None,,,,,,,,,,,,,,,,,,,,,,,,,,,,,,,,,,,,,,,,,,,,,,,19_DA,19,24,F,2022-12-12_12h18.49.973,dynamic target,2022.1.3,120.11148091548746,
1,5,1,2,L,0,9,9,9,,,,,,,None,159.09393703620663,None,158.10311810665917,None,158.59438282821975,None,1,[0.008697754939930746],[0.5176216130221292],159.09393703620663,None,[2 3 3 1 0 2 0 2],space,0,2.7911834331935097,0.0024192074124584906,None,159.11059169749205,None,1,161.8998658133969,None,None,162.39945889188184,None,,,,,,,,,,,,,,,,,,,,,,,,,,,,,,,,,,,,,,,,,,,,,,,19_DA,19,24,F,2022-12-12_12h18.49.973,dynamic target,2022.1.3,120.11148091548746,
1,4,4,2,L,0,10,10,10,,,,,,,None,163.431878169853,None,162.44940709662296,None,162.9323185097328,None,1,[0.008613727957708761],[0.5172518301533273],163.431878169853,None,[3 3 0 3 0 2 2 0],space,0,1.65223230803349,0.0021350550941861,None,163.44855816751806,None,1,165.10546990005787,None,None,165.60503283145826,None,,,,,,,,,,,,,,,,,,,,,,,,,,,,,,,,,,,,,,,,,,,,,,,19_DA,19,24,F,2022-12-12_12h18.49.973,dynamic target,2022.1.3,120.11148091548746,
1,3,3,2,L,0,11,11,11,,,,,,,None,166.63749348149395,None,165.65499546831597,None,166.13793959422037,None,1,[0.008734637012821622],[0.5174997418253042],166.63749348149395,None,[2 2 1 1 1 3 2 0],space,0,1.3902358525610907,0.00261035276344046,None,166.65415102920088,None,0,168.05294758319724,None,None,168.5525438688206,None,,,,,,,,,,,,,,,,,,,,,,,,,,,,,,,,,,,,,,,,,,,,,,,19_DA,19,24,F,2022-12-12_12h18.49.973,dynamic target,2022.1.3,120.11148091548746,
1,2,3,2,L,0,12,12,12,,,,,,,None,169.584966995355,None,168.60246417147027,169.6016206944987,169.0770671760456,None,2,"[0.009444697094295407, 0.3083001341219642]","[0.20071384450238838, 0.8087856946294778]",169.584966995355,None,[0 0 3 0 1 3 0 2],space,0,2.2240554947329656,0.002594637795482413,None,169.88473710779,None,1,172.116148703386,None,None,172.61570714479475,None,,,,,,,,,,,,,,,,,,,,,,,,,,,,,,,,,,,,,,,,,,,,,,,19_DA,19,24,F,2022-12-12_12h18.49.973,dynamic target,2022.1.3,120.11148091548746,
1,1,1,2,L,0,13,13,13,,,,,,,None,173.63982571135784,None,172.64903243890512,173.64816362555212,173.1402766347892,None,2,"[0.008625273649158771, 0.13340117496773019]","[0.050490274999901885, 0.6335349125711218]",173.63982571135784,None,[1 0 2 0 0 3 3 2],space,0,6.463562224269481,0.002664553376234835,None,173.77305209737096,None,1,180.2342088602927,None,None,180.73378846880277,None,,,,,,,,,,,,,,,,,,,,,,,,,,,,,,,,,,,,,,,,,,,,,,,19_DA,19,24,F,2022-12-12_12h18.49.973,dynamic target,2022.1.3,120.11148091548746,
1,8,4,2,L,0,14,14,14,,,,,,,None,181.7662574573951,None,180.79211243195277,None,181.26667502660348,None,1,[0.008718601329746889],[0.5171575403310271],181.7662574573951,None,[1 3 1 2 2 1 1 0],space,0,3.2858451540269016,0.0029054093502054457,None,181.7828874237257,None,1,185.07172440688737,None,None,185.57132261679234,None,,,,,,,,,,,,,,,,,,,,,,,,,,,,,,,,,,,,,,,,,,,,,,,19_DA,19,24,F,2022-12-12_12h18.49.973,dynamic target,2022.1.3,120.11148091548746,
1,4,1,0,L,0,15,15,15,,,,,,,None,186.60377043827975,None,185.62961194286436,186.62874954378458,186.1041831967832,None,1,[0.0831767716063041],[0.5836610492588079],186.60377043827975,None,[2 1 3 2 0 3 3 0],space,0,5.501471222405598,0.002587902808954823,None,186.6870488761233,None,1,192.19067614781852,None,None,192.6902416449271,None,,,,,,,,,,,,,,,,,,,,,,,,,,,,,,,,,,,,,,,,,,,,,,,19_DA,19,24,F,2022-12-12_12h18.49.973,dynamic target,2022.1.3,120.11148091548746,
1,7,2,0,L,0,16,16,16,,,,,,,None,193.72267984500468,None,192.74023410815607,None,193.22311826060286,None,1,[0.008653496452097897],[0.5172656208396802],193.72267984500468,None,[3 1 0 2 1 3 2 3],space,0,7.647737505840269,0.0022171577948029153,None,193.73934188270505,None,1,201.39112347925584,None,None,201.89070886061253,None,,,,,,,,,,,,,,,,,,,,,,,,,,,,,,,,,,,,,,,,,,,,,,,19_DA,19,24,F,2022-12-12_12h18.49.973,dynamic target,2022.1.3,120.11148091548746,
1,8,4,1,L,0,17,17,17,,,,,,,None,202.92316886922163,None,201.9490129395126,None,202.42358194843837,None,1,[0.008640988618935808],[0.5170808897619281],202.92316886922163,None,[2 3 1 3 2 3 0 3],space,0,1.216018089256977,0.0028569815840455703,None,202.9398139090954,None,1,204.15543195963073,None,None,204.65502503811567,None,,,,,,,,,,,,,,,,,,,,,,,,,,,,,,,,,,,,,,,,,,,,,,,19_DA,19,24,F,2022-12-12_12h18.49.973,dynamic target,2022.1.3,120.11148091548746,
1,7,4,2,L,0,18,18,18,,,,,,,None,205.68747029389488,None,204.71334515270064,205.7124477958314,205.18790454021473,None,1,[0.7676006062774832],[1.274897483872337],205.68747029389488,None,[0 3 3 3 2 0 1 0],space,0,3.3578845017473213,0.002699190454222844,None,206.46179594528076,None,1,209.81727274068362,None,None,210.31684625563557,None,,,,,,,,,,,,,,,,,,,,,,,,,,,,,,,,,,,,,,,,,,,,,,,19_DA,19,24,F,2022-12-12_12h18.49.973,dynamic target,2022.1.3,120.11148091548746,
1,6,2,2,L,0,19,19,19,,,,,,,None,211.34930882995286,None,210.36685892382593,None,210.8497235127379,None,1,[0.008713469909707783],[0.5170196334493085],211.34930882995286,None,[1 3 3 0 2 3 0 0],space,0,2.2938716552398546,0.0030221491269912804,None,211.36595162483172,None,1,213.66399725982228,None,None,214.16354287268277,None,,,,,,,,,,,,,,,,,,,,,,,,,,,,,,,,,,,,,,,,,,,,,,,19_DA,19,24,F,2022-12-12_12h18.49.973,dynamic target,2022.1.3,120.11148091548746,
1,5,4,2,L,0,20,20,20,,,,,,,None,215.19602725552977,None,214.2218562522812,None,214.6964371276099,None,1,[0.008699999936652603],[0.5172932022178429],215.19602725552977,None,[0 1 2 2 3 1 1 3],space,0,1.8862731143599376,0.0028383801891322946,None,215.21265593900716,None,1,217.10270855529416,None,None,217.60228752237762,None,,,,,,,,,,,,,,,,,,,,,,,,,,,,,,,,,,,,,,,,,,,,,,,19_DA,19,24,F,2022-12-12_12h18.49.973,dynamic target,2022.1.3,120.11148091548746,
1,4,1,2,L,0,21,21,21,,,,,,,None,218.63474079599837,None,217.66061886194075,None,218.1351721558949,None,1,[0.008583580871345475],[0.5171075089983788],218.63474079599837,None,[2 1 3 2 1 3 2 0],space,0,1.7914557191070344,0.002919841463153716,None,218.6514012301286,None,1,220.4415496115198,None,None,220.9410958658069,None,,,,,,,,,,,,,,,,,,,,,,,,,,,,,,,,,,,,,,,,,,,,,,,19_DA,19,24,F,2022-12-12_12h18.49.973,dynamic target,2022.1.3,120.11148091548746,
1,3,2,2,L,0,22,22,22,,,,,,,None,221.97355459156097,None,220.9994034725587,None,221.4739808200393,None,1,[0.008617897234216798],[0.5171010947233299],221.97355459156097,None,[1 2 1 2 2 0 3 3],space,0,1.1893369562658336,0.0029740420759480912,None,221.99023811707593,None,1,223.18084787716361,None,None,223.68042620282048,None,,,,,,,,,,,,,,,,,,,,,,,,,,,,,,,,,,,,,,,,,,,,,,,19_DA,19,24,F,2022-12-12_12h18.49.973,dynamic target,2022.1.3,120.11148091548746,
1,2,3,2,L,0,23,23,23,,,,,,,None,224.70455471150854,None,223.71373000911444,None,224.2049735635701,None,1,[0.00865991072714678],[0.5176010873474297],224.70455471150854,None,[3 1 0 1 0 3 3 2],space,0,1.3694811876193853,0.0023813631996745244,None,224.72121386278377,None,1,226.09501687916054,None,None,226.59459969480903,None,,,,,,,,,,,,,,,,,,,,,,,,,,,,,,,,,,,,,,,,,,,,,,,19_DA,19,24,F,2022-12-12_12h18.49.973,dynamic target,2022.1.3,120.11148091548746,
1,1,2,2,L,0,24,24,24,,,,,,,None,227.61874006990183,None,226.62791248108624,None,227.11916918480347,None,1,[0.00865510002040537],[0.5179997344475851],227.61874006990183,None,[0 3 1 3 3 2 2 3],space,0,1.8149165660579456,0.002140186512406217,None,227.63537131908924,None,1,229.4505113138166,None,None,229.95006815165524,None,,,,,,,,,,,,,,,,,,,,,,,,,,,,,,,,,,,,,,,,,,,,,,,19_DA,19,24,F,2022-12-12_12h18.49.973,dynamic target,2022.1.3,120.11148091548746,
1,4,1,0,L,0,25,25,25,,,,,,,None,230.9825191802811,None,230.0000224499563,230.99916133373154,230.48297780084067,None,1,[0.9167010364817543],[1.4248753866995685],230.9825191802811,None,[0 2 0 0 0 0 3 3],space,0,2.7432732997312996,0.0028338901975075714,None,231.9067265203903,None,1,234.65438803660982,None,None,235.15394359159527,None,,,,,,,,,,,,,,,,,,,,,,,,,,,,,,,,,,,,,,,,,,,,,,,19_DA,19,24,F,2022-12-12_12h18.49.973,dynamic target,2022.1.3,120.11148091548746,
1,6,1,0,L,0,26,26,26,,,,,,,None,236.18642733301567,None,235.21229096684146,None,235.68683303581747,None,1,[0.008700962078364682],[0.5177159028444294],236.18642733301567,None,[2 0 2 3 3 2 2 3],space,0,2.5902899890297704,0.0024047752976912307,None,236.2030643550479,None,1,238.79251813475457,None,None,239.2920878011415,None,,,,,,,,,,,,,,,,,,,,,,,,,,,,,,,,,,,,,,,,,,,,,,,19_DA,19,24,F,2022-12-12_12h18.49.973,dynamic target,2022.1.3,120.11148091548746,
1,5,3,2,L,0,27,27,27,,,,,,,None,240.32452439765075,None,239.3504124057181,None,239.82497115180377,None,1,[0.008622707939139218],[0.5172495851566055],240.32452439765075,None,[2 2 1 0 1 0 0 3],space,0,2.803998831041099,0.0022918840822967468,None,240.34120920602072,None,1,243.14713060679605,None,None,243.64671085673453,None,,,,,,,,,,,,,,,,,,,,,,,,,,,,,,,,,,,,,,,,,,,,,,,19_DA,19,24,F,2022-12-12_12h18.49.973,dynamic target,2022.1.3,120.11148091548746,
1,4,1,2,L,0,28,28,28,,,,,,,None,244.67917920389846,None,243.7050126906397,None,244.17960190452504,None,1,[0.008674984268509434],[0.5169657535516308],244.67917920389846,None,[3 1 2 1 2 2 2 2],space,0,1.8739532191411854,0.003157811013807077,None,244.69580949094416,None,1,246.5692087287989,None,None,247.06879892086235,None,,,,,,,,,,,,,,,,,,,,,,,,,,,,,,,,,,,,,,,,,,,,,,,19_DA,19,24,F,2022-12-12_12h18.49.973,dynamic target,2022.1.3,120.11148091548746,
1,3,2,2,L,0,29,29,29,,,,,,,None,248.10124513878145,None,247.12706515554964,None,247.6016588594266,None,1,[0.008670173565406003],[0.5171206582599552],248.10124513878145,None,[0 1 3 0 2 2 2 3],space,0,2.115499687668489,0.0028983536485611694,None,248.117885047237,None,1,250.23273710522517,None,None,250.7323292215702,None,,,,,,,,,,,,,,,,,,,,,,,,,,,,,,,,,,,,,,,,,,,,,,,19_DA,19,24,F,2022-12-12_12h18.49.973,dynamic target,2022.1.3,120.11148091548746,
1,2,1,2,L,0,30,30,30,,,,,,,None,251.76479981372904,None,250.79065863685173,251.78974235787427,251.26522379721064,None,1,[0.06685244541040447],[0.5757920184623799],251.76479981372904,None,[0 3 2 3 0 0 2 1],space,0,4.7773000587985734,0.0025247222129110014,None,251.83970602101363,None,1,256.61895462735265,None,None,257.1185275008762,None,,,,,,,,,,,,,,,,,,,,,,,,,,,,,,,,,,,,,,,,,,,,,,,19_DA,19,24,F,2022-12-12_12h18.49.973,dynamic target,2022.1.3,120.11148091548746,
1,8,1,0,L,0,31,31,31,,,,,,,None,258.14265825456096,None,257.1685138705452,None,257.64308608660576,None,1,[0.008599295841122512],[0.5177668963206088],258.14265825456096,None,[1 2 0 0 3 2 1 1],space,0,4.857362700593512,0.0022373627598426538,None,258.1593347243743,None,1,263.02180788865735,None,None,263.5213820450359,None,,,,,,,,,,,,,,,,,,,,,,,,,,,,,,,,,,,,,,,,,,,,,,,19_DA,19,24,F,2022-12-12_12h18.49.973,dynamic target,2022.1.3,120.11148091548746,
1,7,4,2,L,0,32,32,32,,,,,,,None,264.55383916722167,None,263.57135654829835,None,264.05426090570836,None,1,[0.008720204898054362],[0.5175096839484468],264.55383916722167,None,[2 3 2 3 1 1 2 1],space,0,5.437750546057941,0.0025808471073105466,None,264.5704803585322,None,1,270.00750790719576,None,None,270.50708462928253,None,,,,,,,,,,,,,,,,,,,,,,,,,,,,,,,,,,,,,,,,,,,,,,,19_DA,19,24,F,2022-12-12_12h18.49.973,dynamic target,2022.1.3,120.11148091548746,
1,6,2,2,L,0,33,33,33,,,,,,,None,271.53953790290325,None,270.5570280233187,271.5561925641887,271.03995964138994,None,2,"[0.008641950760647887, 0.3257726152860414]","[0.23372201693018724, 0.8336782074420626]",271.53953790290325,None,[2 0 2 3 2 1 2 1],space,0,1.6395150485695922,0.0026603840979078086,None,271.8725977743743,None,1,273.5128397720873,None,None,274.0124171356025,None,,,,,,,,,,,,,,,,,,,,,,,,,,,,,,,,,,,,,,,,,,,,,,,19_DA,19,24,F,2022-12-12_12h18.49.973,dynamic target,2022.1.3,120.11148091548746,
1,5,1,2,L,0,34,34,34,,,,,,,None,275.04486944708333,None,274.0707609830006,None,274.5453046555431,None,1,[0.008634253632408218],[0.5170151434576837],275.04486944708333,None,[0 3 3 3 3 3 2 0],space,0,3.05881001727721,0.0029794942074659048,None,275.06152603264854,None,1,278.1172455441647,None,None,278.61681649340665,None,,,,,,,,,,,,,,,,,,,,,,,,,,,,,,,,,,,,,,,,,,,,,,,19_DA,19,24,F,2022-12-12_12h18.49.973,dynamic target,2022.1.3,120.11148091548746,
1,4,1,2,L,0,35,35,35,,,,,,,None,279.6492832370004,None,278.66677015027926,None,279.1497062583421,None,1,[0.0079620377637184],[0.5174798575772002],279.6492832370004,None,[3 2 0 2 0 1 3 0],space,0,1.9895814042301936,0.0019204976451874245,None,279.665928276876,None,1,281.6558944287535,None,None,282.1554673022771,None,,,,,,,,,,,,,,,,,,,,,,,,,,,,,,,,,,,,,,,,,,,,,,,19_DA,19,24,F,2022-12-12_12h18.49.973,dynamic target,2022.1.3,120.11148091548746,
1,3,3,2,L,0,36,36,36,,,,,,,None,283.17958490670026,None,282.18877431570945,283.1879318008778,282.68002620872176,None,2,"[0.008740089146158425, 0.35829747219941055]","[0.24200925836157694, 0.8584799582822598]",283.17958490670026,None,[2 2 2 1 1 3 0 1],space,0,1.5107597319383785,0.002991681327330298,None,283.5376133001246,None,1,285.0529847859834,None,None,285.55257080876856,None,,,,,,,,,,,,,,,,,,,,,,,,,,,,,,,,,,,,,,,,,,,,,,,19_DA,19,24,F,2022-12-12_12h18.49.973,dynamic target,2022.1.3,120.11148091548746,
1,2,2,2,L,0,37,37,37,,,,,,,None,286.58500099100456,None,285.61089509263184,None,286.0854342751827,None,1,[0.00855247164327011],[0.5169429828802095],286.58500099100456,None,[0 3 3 1 1 1 0 3],space,0,1.9666314541664178,0.0030510133583447896,None,286.60166976369146,None,1,288.5666433400911,None,None,289.06623417358117,None,,,,,,,,,,,,,,,,,,,,,,,,,,,,,,,,,,,,,,,,,,,,,,,19_DA,19,24,F,2022-12-12_12h18.49.973,dynamic target,2022.1.3,120.11148091548746,
1,1,4,2,L,0,38,38,38,,,,,,,None,290.09868231578366,None,289.1245292724998,290.12367264626664,289.5991088649753,None,1,[0.09270132640813245],[0.6003673454470118],290.09868231578366,None,[1 1 1 0 1 2 0 3],space,0,5.552710684554768,0.002949667836219305,None,290.1985942478077,None,1,295.75217684408744,None,None,296.25175677331265,None,,,,,,,,,,,,,,,,,,,,,,,,,,,,,,,,,,,,,,,,,,,,,,,19_DA,19,24,F,2022-12-12_12h18.49.973,dynamic target,2022.1.3,120.11148091548746,
1,8,1,2,L,0,39,39,39,,,,,,,None,297.27586764274747,None,296.28507404957963,None,296.77630445477735,None,1,[0.00866760785356746],[0.5174038484346966],297.27586764274747,None,[3 3 2 3 3 3 3 2],space,0,1.3862606065267755,0.002628312731758342,None,297.292542188281,None,1,298.6830001866547,None,None,299.18257530517496,None,,,,,,,,,,,,,,,,,,,,,,,,,,,,,,,,,,,,,,,,,,,,,,,19_DA,19,24,F,2022-12-12_12h18.49.973,dynamic target,2022.1.3,120.11148091548746,
1,7,1,2,L,0,40,40,40,,,,,,,None,300.2150359552106,None,299.2409120968696,300.2400076842987,299.71546988081536,None,2,"[0.008630725780676585, 0.8006527164761792]","[0.24203683973792067, 1.3080717859829747]",300.2150359552106,None,[2 0 0 0 2 2 3 3],space,0,2.6644761941079196,0.0027338275303918635,None,301.0226677220271,None,1,303.687070684653,None,None,304.1866502931631,None,,,,,,,,,,,,,,,,,,,,,,,,,,,,,,,,,,,,,,,,,,,,,,,19_DA,19,24,F,2022-12-12_12h18.49.973,dynamic target,2022.1.3,120.11148091548746,
1,6,2,2,L,0,41,41,41,,,,,,,None,305.2191022839306,None,304.2449293563968,None,304.7195204945656,None,1,[0.009097364183617174],[0.5176370072804275],305.2191022839306,None,[0 0 0 0 2 1 0 1],space,0,4.466690786195613,0.0024374880940740695,None,305.235749248086,None,1,309.7069142020355,None,None,310.2064976591106,None,,,,,,,,,,,,,,,,,,,,,,,,,,,,,,,,,,,,,,,,,,,,,,,19_DA,19,24,F,2022-12-12_12h18.49.973,dynamic target,2022.1.3,120.11148091548746,
1,7,2,1,L,0,42,42,42,,,,,,,None,311.238945480598,None,310.25645997525316,None,310.7393778026362,None,1,[0.008599295841122512],[0.5171142439849064],311.238945480598,None,[1 1 3 2 2 1 0 2],space,0,1.9501563925405208,0.0023605168098583817,None,311.2555825026302,None,1,313.2039354133958,None,None,313.7035159840476,None,,,,,,,,,,,,,,,,,,,,,,,,,,,,,,,,,,,,,,,,,,,,,,,19_DA,19,24,F,2022-12-12_12h18.49.973,dynamic target,2022.1.3,120.11148091548746,
1,6,4,2,L,0,43,43,43,,,,,,,None,314.7359612398268,None,313.75346964092205,314.7526165425388,314.23639548614665,None,3,"[0.009672724519987241, 0.7670162659560447, 0.7921448240340396]","[0.1509503066972684, 0.7752329503800865, 1.2999407321112812]",314.7359612398268,None,[3 2 1 3 0 1 0 3],space,0,4.151337516872445,0.002718433273912524,None,315.5352865223922,None,1,319.6900594154158,None,None,320.18962972322936,None,,,,,,,,,,,,,,,,,,,,,,,,,,,,,,,,,,,,,,,,,,,,,,,19_DA,19,24,F,2022-12-12_12h18.49.973,dynamic target,2022.1.3,120.11148091548746,
1,5,1,2,L,0,44,44,44,,,,,,,None,321.22207882757357,None,320.23957311726554,None,320.72250537676337,None,1,[0.008653496452097897],[0.5170824933302356],321.22207882757357,None,[1 3 0 0 3 3 0 3],space,0,6.335488103490206,0.0027059254425694235,None,321.23875016596867,None,1,327.5749834992803,None,None,328.07456086279547,None,,,,,,,,,,,,,,,,,,,,,,,,,,,,,,,,,,,,,,,,,,,,,,,19_DA,19,24,F,2022-12-12_12h18.49.973,dynamic target,2022.1.3,120.11148091548746,
1,4,1,2,L,0,45,45,45,,,,,,,None,329.1070052205765,None,328.1245276689315,None,328.59910790283357,None,1,[0.009141622671450023],[0.5163961660618952],329.1070052205765,None,[2 0 3 3 2 0 3 1],space,0,1.866098299748046,0.002065139513433678,None,329.11535333346546,None,1,330.98040824285454,None,None,331.47999266207137,None,,,,,,,,,,,,,,,,,,,,,,,,,,,,,,,,,,,,,,,,,,,,,,,19_DA,19,24,F,2022-12-12_12h18.49.973,dynamic target,2022.1.3,120.11148091548746,
1,3,4,2,L,0,46,46,46,,,,,,,None,332.5124305414356,None,331.5383166252195,None,332.0128513177806,None,1,[0.008636498627311084],[0.5170946804501],332.5124305414356,None,[2 3 1 1 3 1 0 3],space,0,1.8290866584811738,0.0030109241506579565,None,332.5290784677327,None,1,334.3608763308803,None,None,334.8604209816009,None,,,,,,,,,,,,,,,,,,,,,,,,,,,,,,,,,,,,,,,,,,,,,,,19_DA,19,24,F,2022-12-12_12h18.49.973,dynamic target,2022.1.3,120.11148091548746,
1,2,3,2,L,0,47,47,47,,,,,,,None,335.8928858009149,None,334.9104095962666,335.9095545736018,335.3933107465382,None,1,[1.0584519920485036],[1.5659178857513325],335.8928858009149,None,[3 1 0 2 0 2 1 3],space,0,1.2870010061214998,0.0031757709784869803,None,336.95863851912327,None,1,338.24919677259277,None,None,338.748777984673,None,,,,,,,,,,,,,,,,,,,,,,,,,,,,,,,,,,,,,,,,,,,,,,,19_DA,19,24,F,2022-12-12_12h18.49.973,dynamic target,2022.1.3,120.11148091548746,
1,1,2,2,L,0,48,48,48,,,,,,,None,339.78121939188713,None,338.8070980992579,None,339.2816568453436,None,1,[0.008689095671797986],[0.5179442509834189],339.78121939188713,None,[3 0 1 2 0 1 2 3],space,0,3.918446148369185,0.002331011151909479,None,339.79788944742904,None,1,343.7195230602756,None,None,344.219105555209,None,,,,,,,,,,,,,,,,,,,,,,,,,,,,,,,,,,,,,,,,,,,,,,,19_DA,19,24,F,2022-12-12_12h18.49.973,dynamic target,2022.1.3,120.11148091548746,
1,8,3,2,L,0,49,49,49,,,,,,,None,345.2515527352698,None,344.2607431064189,None,344.75196581448654,None,1,[0.00869069924010546],[0.5174766504405852],345.2515527352698,None,[0 3 3 3 3 0 3 2],space,0,2.3041813171239482,0.0025856578122329665,None,345.26821349011516,None,1,347.57457138220525,None,None,348.0741461800104,None,,,,,,,,,,,,,,,,,,,,,,,,,,,,,,,,,,,,,,,,,,,,,,,19_DA,19,24,F,2022-12-12_12h18.49.973,dynamic target,2022.1.3,120.11148091548746,
1,1,2,1,L,0,50,50,50,,,,,,,None,349.10660041577285,None,348.13242941252247,None,348.6070215128311,None,1,[0.008716035619727336],[0.517187045990795],349.10660041577285,None,[1 3 3 0 1 3 0 0],space,0,3.057736909313462,0.0028002152630506316,None,349.12323647566336,None,1,352.1789598357427,None,None,352.678536237118,None,,,,,,,,,,,,,,,,,,,,,,,,,,,,,,,,,,,,,,,,,,,,,,,19_DA,19,24,F,2022-12-12_12h18.49.973,dynamic target,2022.1.3,120.11148091548746,
1,4,3,0,L,0,51,51,51,,,,,,,None,353.71099303858864,None,352.7285059296755,353.72762460848753,353.21141734278353,None,2,"[0.00870224493155547, 0.5752240345391328]","[0.466886954201982, 1.0752961951166071]",353.71099303858864,None,[2 2 0 0 1 1 3 1],space,0,2.13513634472838,0.002647876264745719,None,354.28551952087946,None,1,356.4253433079557,None,None,356.92489405223625,None,,,,,,,,,,,,,,,,,,,,,,,,,,,,,,,,,,,,,,,,,,,,,,,19_DA,19,24,F,2022-12-12_12h18.49.973,dynamic target,2022.1.3,120.11148091548746,
1,6,3,0,L,0,52,52,52,,,,,,,None,357.9573514951353,None,356.99150846395423,None,357.45780819141146,None,1,[0.008617897234216798],[0.5174865925637278],357.9573514951353,None,[2 3 0 2 2 1 2 1],space,0,1.7744145978394954,0.0026257470235577784,None,357.97401385354715,None,1,359.7475220057677,None,None,360.24705703507846,None,,,,,,,,,,,,,,,,,,,,,,,,,,,,,,,,,,,,,,,,,,,,,,,19_DA,19,24,F,2022-12-12_12h18.49.973,dynamic target,2022.1.3,120.11148091548746,
1,5,2,2,L,0,53,53,53,,,,,,,None,361.27118240077164,None,360.28036982135563,None,360.7632895730203,None,1,[0.008545415943444823],[0.5164385002644849],361.27118240077164,None,[2 3 3 3 3 2 1 2],space,0,1.2045108824986528,0.002944536416180199,None,361.2795144779775,None,1,362.4868257235448,None,None,362.9863963520735,None,,,,,,,,,,,,,,,,,,,,,,,,,,,,,,,,,,,,,,,,,,,,,,,19_DA,19,24,F,2022-12-12_12h18.49.973,dynamic target,2022.1.3,120.11148091548746,
1,4,1,2,L,0,54,54,54,,,,,,,None,364.0188646992374,None,363.04468215029556,None,363.5192774577408,None,1,[0.008691340666700853],[0.5175568288595969],364.0188646992374,None,[3 1 2 0 1 2 2 3],space,0,2.703963744965222,0.0025263257812184747,None,364.03548793058144,None,0,366.74982633354375,None,None,367.24942678844366,None,,,,,,,,,,,,,,,,,,,,,,,,,,,,,,,,,,,,,,,,,,,,,,,19_DA,19,24,F,2022-12-12_12h18.49.973,dynamic target,2022.1.3,120.11148091548746,
1,3,3,2,L,0,55,55,55,,,,,,,None,368.28189417346584,None,367.30771835951055,368.3068617332774,367.78230147983595,None,1,[0.058553978999043466],[0.5667286499301554],368.28189417346584,None,[0 0 2 3 3 2 3 2],space,0,1.990459838993047,0.002745693938777549,None,368.34847561581773,None,1,370.3467678154848,None,None,370.846335236875,None,,,,,,,,,,,,,,,,,,,,,,,,,,,,,,,,,,,,,,,,,,,,,,,19_DA,19,24,F,2022-12-12_12h18.49.973,dynamic target,2022.1.3,120.11148091548746,
1,2,2,2,L,0,56,56,56,,,,,,,None,371.87879364191576,None,370.90465695502826,None,371.3792054382775,None,1,[0.008621425084129442],[0.5172075716654945],371.87879364191576,None,[3 0 1 1 2 2 0 3],space,0,1.2122731156414375,0.002760446766842506,None,371.8954713945841,None,1,373.1110663537347,None,None,373.6106626393581,None,,,,,,,,,,,,,,,,,,,,,,,,,,,,,,,,,,,,,,,,,,,,,,,19_DA,19,24,F,2022-12-12_12h18.49.973,dynamic target,2022.1.3,120.11148091548746,
1,1,4,2,L,0,57,57,57,,,,,,,None,374.64310468799886,None,373.668978905378,None,374.14352418149065,None,1,[0.007723747499767342],[0.5165741621513007],374.64310468799886,None,[0 2 2 0 1 1 0 0],space,0,4.223594949891776,0.002396436741037178,None,374.6597593492843,None,1,378.88116371599426,None,None,379.3807176674096,None,,,,,,,,,,,,,,,,,,,,,,,,,,,,,,,,,,,,,,,,,,,,,,,19_DA,19,24,F,2022-12-12_12h18.49.973,dynamic target,2022.1.3,120.11148091548746,
1,8,3,2,L,0,58,58,58,,,,,,,None,380.4048561182226,None,379.4223516907696,380.42149730953315,379.90527400814426,None,2,"[0.008658627872137004, 0.5172264937718865]","[0.40850840558596246, 1.0251304823596001]",380.4048561182226,None,[0 3 0 2 1 3 2 1],space,0,2.305712404220685,0.002787066001474159,None,380.92939841169755,None,1,383.2357514930827,None,None,383.73535547583253,None,,,,,,,,,,,,,,,,,,,,,,,,,,,,,,,,,,,,,,,,,,,,,,,19_DA,19,24,F,2022-12-12_12h18.49.973,dynamic target,2022.1.3,120.11148091548746,
1,7,3,2,L,0,59,59,59,,,,,,,None,384.76778565806853,None,383.793662761871,None,384.26821509368347,None,1,[0.008636819340608781],[0.5172505472983175],384.76778565806853,None,[3 3 2 1 2 3 2 3],space,0,1.490467215407989,0.0028268344976822846,None,384.7844252458108,None,1,386.27482692686317,None,space,386.79104734182874,None,2.9448149062391167,,,,,,,,,,,,,,,,,,,,,,,,,,,,,,,,,,,,,,,,,,,,,,19_DA,19,24,F,2022-12-12_12h18.49.973,dynamic target,2022.1.3,120.11148091548746,
1,6,2,2,L,0,60,60,60,,,,,,,None,390.7793214083431,None,389.80511865443805,None,390.27973480827313,None,1,[0.008611482960986905],[0.5169952592113987],390.7793214083431,None,[3 1 1 0 0 3 3 3],space,0,3.9264049789944693,0.002986229193993495,None,390.7959584303753,None,1,394.72593316455277,None,None,395.22550635878963,None,,,,,,,,,,,,,,,,,,,,,,,,,,,,,,,,,,,,,,,,,,,,,,,19_DA,19,24,F,2022-12-12_12h18.49.973,dynamic target,2022.1.3,120.11148091548746,
1,5,3,2,L,0,61,61,61,,,,,,,None,396.25795995312365,None,395.2838296805112,396.2829291165035,395.7583951615852,None,2,"[0.008610520819274825, 0.2833447614302713]","[0.1754079317634023, 0.7837042814644519]",396.25795995312365,None,[1 2 3 2 3 0 1 2],space,0,1.429604739358183,0.002540116469390341,None,396.54106225501346,None,1,397.9731745458521,None,None,398.47272529013264,None,,,,,,,,,,,,,,,,,,,,,,,,,,,,,,,,,,,,,,,,,,,,,,,19_DA,19,24,F,2022-12-12_12h18.49.973,dynamic target,2022.1.3,120.11148091548746,
1,4,4,2,L,0,62,62,62,,,,,,,None,399.50519139230164,None,398.5310264826112,None,399.00561986577486,None,1,[0.00867722926523129],[0.5169189293555974],399.50519139230164,None,[1 3 0 3 1 2 1 3],space,0,2.592183803295484,0.0028858458153990796,None,399.5218377150304,None,1,402.1112991918653,None,None,402.6108682168257,None,,,,,,,,,,,,,,,,,,,,,,,,,,,,,,,,,,,,,,,,,,,,,,,19_DA,19,24,F,2022-12-12_12h18.49.973,dynamic target,2022.1.3,120.11148091548746,
1,3,3,2,L,0,63,63,63,,,,,,,None,403.64333143256954,None,402.6691870485556,None,403.1437457946413,None,1,[0.008636177914013388],[0.517864393275886],403.64333143256954,None,[3 0 2 1 2 1 3 1],space,0,2.3416307325605885,0.0023367839985439787,None,403.6599767931584,None,1,405.99964336638914,None,None,406.4991989213746,None,,,,,,,,,,,,,,,,,,,,,,,,,,,,,,,,,,,,,,,,,,,,,,,19_DA,19,24,F,2022-12-12_12h18.49.973,dynamic target,2022.1.3,120.11148091548746,
1,2,2,2,L,0,64,64,64,,,,,,,None,407.53167239995673,None,406.5491817631937,None,407.03209670415345,None,1,[0.00864740289398469],[0.5170420834074321],407.53167239995673,None,[3 2 0 1 3 0 1 1],space,0,1.0458272068881342,0.003097516839261516,None,407.54830493199916,None,1,408.5974401917101,None,None,409.0969944638406,None,,,,,,,,,,,,,,,,,,,,,,,,,,,,,,,,,,,,,,,,,,,,,,,19_DA,19,24,F,2022-12-12_12h18.49.973,dynamic target,2022.1.3,120.11148091548746,
1,1,4,2,L,0,65,65,65,,,,,,,None,410.121118482537,None,409.1302921765746,None,409.6215501631468,None,1,[0.008640988618935808],[0.5177171856994391],410.121118482537,None,[0 3 1 1 0 0 2 2],space,0,3.3670742314698145,0.002202725681854645,None,410.1377750681022,None,1,413.5098696427176,None,None,414.00946047620766,None,,,,,,,,,,,,,,,,,,,,,,,,,,,,,,,,,,,,,,,,,,,,,,,19_DA,19,24,F,2022-12-12_12h18.49.973,dynamic target,2022.1.3,120.11148091548746,
1,8,3,2,L,0,66,66,66,,,,,,,None,415.04190925983676,None,414.06778604292595,None,414.5423438268699,None,1,[0.008622387225841521],[0.5175321339065704],415.04190925983676,None,[1 0 3 2 3 2 2 2],space,0,3.3428677252159105,0.0025564728675817605,None,415.05855301685733,None,1,418.4057076130357,None,None,418.90527663799605,None,,,,,,,,,,,,,,,,,,,,,,,,,,,,,,,,,,,,,,,,,,,,,,,19_DA,19,24,F,2022-12-12_12h18.49.973,dynamic target,2022.1.3,120.11148091548746,
1,7,3,2,L,0,67,67,67,,,,,,,None,419.9377372880317,None,418.96362080610743,419.9627340327879,419.43821226498767,None,1,[0.5667539863115962],[1.066981051595576],419.9377372880317,None,[1 0 3 1 2 3 3 3],space,0,2.2170863865176216,0.0027601260553637985,None,420.5039123861534,None,1,422.7186738104556,None,None,423.2182563053908,None,,,,,,,,,,,,,,,,,,,,,,,,,,,,,,,,,,,,,,,,,,,,,,,19_DA,19,24,F,2022-12-12_12h18.49.973,dynamic target,2022.1.3,120.11148091548746,
1,6,4,2,L,0,68,68,68,,,,,,,None,424.25071182400643,None,423.27655942215097,424.27569253307956,423.7511319589248,None,2,"[0.008605710114352405, 0.9751575185218826]","[0.49981462749383354, 1.4830698456662503]",424.25071182400643,None,[2 3 0 3 1 0 3 3],space,0,3.3756478702161985,0.0026440277015353786,None,425.2332072714762,None,1,428.61365034383743,None,None,429.11321616165935,None,,,,,,,,,,,,,,,,,,,,,,,,,,,,,,,,,,,,,,,,,,,,,,,19_DA,19,24,F,2022-12-12_12h18.49.973,dynamic target,2022.1.3,120.11148091548746,
1,7,2,1,L,0,69,69,69,,,,,,,None,430.1456684731402,None,429.1631707806737,430.16231255087223,429.6461017573183,None,2,"[0.008598975127824815, 0.2750286557675281]","[0.167067772574228, 0.7757457715506462]",430.1456684731402,None,[0 2 1 0 1 2 2 2],space,0,0.9885076548380312,0.002469559460223536,None,430.4204347851173,None,1,431.41126429821634,None,None,431.9108333231767,None,,,,,,,,,,,,,,,,,,,,,,,,,,,,,,,,,,,,,,,,,,,,,,,19_DA,19,24,F,2022-12-12_12h18.49.973,dynamic target,2022.1.3,120.11148091548746,
1,8,4,1,L,0,70,70,70,,,,,,,None,432.94329044536244,None,431.96079211146935,432.9599370888045,432.44374072736537,None,2,"[0.008748106987695792, 0.47588650071156735]","[0.3835382800625666, 0.9836804845072038]",432.94329044536244,None,[2 2 0 1 1 0 0 0],space,0,1.1660271654527605,0.002457051627061446,None,433.42620249989886,None,1,434.59187516797283,None,None,435.0914461172148,None,,,,,,,,,,,,,,,,,,,,,,,,,,,,,,,,,,,,,,,,,,,,,,,19_DA,19,24,F,2022-12-12_12h18.49.973,dynamic target,2022.1.3,120.11148091548746,
1,7,4,2,L,0,71,71,71,,,,,,,None,436.1239006736905,None,435.1497768153513,None,435.6243246571721,None,1,[0.008587750147853512],[0.517505193958641],436.1239006736905,None,[0 2 0 0 2 1 1 3],space,0,1.31552944989744,0.0025786021105886903,None,436.1405797092157,None,1,437.4560959010869,None,None,437.9556617189088,None,,,,,,,,,,,,,,,,,,,,,,,,,,,,,,,,,,,,,,,,,,,,,,,19_DA,19,24,F,2022-12-12_12h18.49.973,dynamic target,2022.1.3,120.11148091548746,
1,6,2,2,L,0,72,72,72,,,,,,,None,438.9798184504016,None,438.00567919780406,439.0047760680882,438.48021998392505,None,2,"[0.008741372001168202, 0.38326342844266037]","[0.2920357813836745, 0.8836049885085231]",438.9798184504016,None,[3 0 3 1 3 2 1 3],space,0,3.421360794271095,0.002697907601032057,None,439.3628025372291,None,1,442.78488130066035,None,None,443.28444391134565,None,,,,,,,,,,,,,,,,,,,,,,,,,,,,,,,,,,,,,,,,,,,,,,,19_DA,19,24,F,2022-12-12_12h18.49.973,dynamic target,2022.1.3,120.11148091548746,
1,5,4,2,L,0,73,73,73,,,,,,,None,444.3168866014166,None,443.3428073222767,444.3418769318978,443.8173253377263,None,2,"[0.008618217947514495, 0.12526338610769017]","[0.017241567315068096, 0.6260497760449653]",444.3168866014166,None,[1 3 2 1 0 3 3 2],space,0,1.4142278013641771,0.00227328269102145,None,444.44181291744826,None,1,445.85724873847175,None,None,446.3568168012904,None,,,,,,,,,,,,,,,,,,,,,,,,,,,,,,,,,,,,,,,,,,,,,,,19_DA,19,24,F,2022-12-12_12h18.49.973,dynamic target,2022.1.3,120.11148091548746,
1,4,2,2,L,0,74,74,74,,,,,,,None,447.3892630192113,None,446.4067797588614,None,446.88968251270126,None,1,[0.008659269298732397],[0.5177806870069617],447.3892630192113,None,[2 0 1 0 0 1 1 0],space,0,6.465300492402093,0.002289318374096183,None,447.40592986761476,None,1,453.8753748341096,None,None,454.37498170328456,None,,,,,,,,,,,,,,,,,,,,,,,,,,,,,,,,,,,,,,,,,,,,,,,19_DA,19,24,F,2022-12-12_12h18.49.973,dynamic target,2022.1.3,120.11148091548746,
1,3,3,2,L,0,75,75,75,,,,,,,None,455.40741124409215,None,454.42491002377756,None,454.90783683114387,None,1,[0.00856305519482703],[0.5174551626241737],455.40741124409215,None,[2 1 2 3 1 3 2 1],space,0,2.847312175361367,0.002618049893499119,None,455.4240675089459,None,1,458.2716332600612,None,None,458.7712170378496,None,,,,,,,,,,,,,,,,,,,,,,,,,,,,,,,,,,,,,,,,,,,,,,,19_DA,19,24,F,2022-12-12_12h18.49.973,dynamic target,2022.1.3,120.11148091548746,
1,2,1,2,L,0,76,76,76,,,,,,,None,459.80369372356836,None,458.82951951318137,None,459.3040891635337,None,1,[0.008698717081642826],[0.5176799829132506],459.80369372356836,None,[3 3 2 1 0 3 2 1],space,0,5.506975951968343,0.0023832874812796945,None,459.82030220208435,None,1,465.3322651429771,None,None,465.83184988290725,None,,,,,,,,,,,,,,,,,,,,,,,,,,,,,,,,,,,,,,,,,,,,,,,19_DA,19,24,F,2022-12-12_12h18.49.973,dynamic target,2022.1.3,120.11148091548746,
1,1,2,2,L,0,77,77,77,,,,,,,None,466.8642785257167,None,465.88180225692486,None,466.36472040502304,None,1,[0.00864836503387778],[0.5089559294501669],466.8642785257167,None,[1 0 2 1 2 1 1 1],space,0,3.0783161438703246,0.002652045541253756,None,466.87262311075574,None,1,469.9533214070598,None,None,470.4528994120034,None,,,,,,,,,,,,,,,,,,,,,,,,,,,,,,,,,,,,,,,,,,,,,,,19_DA,19,24,F,2022-12-12_12h18.49.973,dynamic target,2022.1.3,120.11148091548746,
1,8,4,2,L,0,78,78,78,,,,,,,None,471.4853331220893,None,470.5028360710512,471.5019897076563,470.9857811590973,None,2,"[0.008183650914361351, 0.5082352858171362]","[0.4331135589400219, 1.0163535111405508]",471.4853331220893,None,[1 1 1 2 0 3 0 1],space,0,2.445103227833897,0.002557114294177154,None,472.0015798355762,None,1,474.4494718807855,None,None,474.94905694143074,None,,,,,,,,,,,,,,,,,,,,,,,,,,,,,,,,,,,,,,,,,,,,,,,19_DA,19,24,F,2022-12-12_12h18.49.973,dynamic target,2022.1.3,120.11148091548746,
1,7,2,2,L,0,79,79,79,,,,,,,None,475.9815217607429,None,474.9990195782866,475.99815814134854,475.48193708495637,None,3,"[0.008803269738564268, 0.20848345406011504, 0.22524651656749484]","[0.10880468087998452, 0.2167312477104133, 0.7337948189342569]",475.9815217607429,None,[1 3 1 1 3 1 3 1],space,0,1.672150551703453,0.0028364559075271245,None,476.2146466088052,None,1,477.88819985336886,None,None,478.38775669120935,None,,,,,,,,,,,,,,,,,,,,,,,,,,,,,,,,,,,,,,,,,,,,,,,19_DA,19,24,F,2022-12-12_12h18.49.973,dynamic target,2022.1.3,120.11148091548746,
1,6,1,2,L,0,80,80,80,,,,,,,None,479.4202327355015,None,478.4460838614941,479.4452108788646,478.92065254970476,None,2,"[0.008742654854358989, 0.8000690175831551]","[0.01724028446005832, 1.3084540766885766]",479.4202327355015,None,[2 2 1 3 1 1 0 0],space,0,4.2503286799274065,0.0026732126461865846,None,480.22787572729794,None,1,484.48257370160536,None,None,484.9821558758273,None,,,,,,,,,,,,,,,,,,,,,,,,,,,,,,,,,,,,,,,,,,,,,,,19_DA,19,24,F,2022-12-12_12h18.49.973,dynamic target,2022.1.3,120.11148091548746,
1,5,2,2,L,0,81,81,81,,,,,,,None,486.01458317163997,None,485.040468293284,None,485.51500940011647,None,1,[0.008651892885609413],[0.5171982709689473],486.01458317163997,None,[2 0 1 0 0 1 0 3],space,0,1.3114243148211244,0.002920162176451413,None,486.03125002004344,None,1,487.34677871974964,None,None,487.84636313896465,None,,,,,,,,,,,,,,,,,,,,,,,,,,,,,,,,,,,,,,,,,,,,,,,19_DA,19,24,F,2022-12-12_12h18.49.973,dynamic target,2022.1.3,120.11148091548746,
1,4,2,2,L,0,82,82,82,,,,,,,None,488.8788173747271,None,487.89630813656913,None,488.3792436032054,None,1,[0.008620783657534048],[0.5172675451231044],488.8788173747271,None,[1 1 3 1 0 0 1 3],space,0,5.789987491889406,0.002833248770912178,None,488.8954547174726,None,1,494.6905135459838,None,None,495.1900755152425,None,,,,,,,,,,,,,,,,,,,,,,,,,,,,,,,,,,,,,,,,,,,,,,,19_DA,19,24,F,2022-12-12_12h18.49.973,dynamic target,2022.1.3,120.11148091548746,
1,3,4,2,L,0,83,83,83,,,,,,,None,496.2225512388195,None,495.24840268552725,496.2475094979345,495.72294860306647,None,1,[0.10848877790704137],[0.6085041721635207],496.2225512388195,None,[2 2 1 3 3 2 1 0],space,0,1.1553836406310438,0.003033374106962583,None,496.33076997581156,None,1,497.4881146718162,None,None,497.987705184593,None,,,,,,,,,,,,,,,,,,,,,,,,,,,,,,,,,,,,,,,,,,,,,,,19_DA,19,24,F,2022-12-12_12h18.49.973,dynamic target,2022.1.3,120.11148091548746,
1,4,1,1,L,0,84,84,84,,,,,,,None,499.0201568546454,None,498.0376521064791,499.03680061166415,498.52057506528035,None,1,[0.8584456419175694],[1.3666074843022216],499.0201568546454,None,[3 0 0 0 1 1 1 1],space,0,1.999325327187762,0.0028714136988128303,None,499.8860821809558,None,1,501.88436700420607,None,None,502.38394244343965,None,,,,,,,,,,,,,,,,,,,,,,,,,,,,,,,,,,,,,,,,,,,,,,,19_DA,19,24,F,2022-12-12_12h18.49.973,dynamic target,2022.1.3,120.11148091548746,
1,3,4,2,L,0,85,85,85,,,,,,,None,503.4080558785845,None,502.4172674168367,503.416401489907,502.9084840313444,None,2,"[0.008558565203202306, 0.19164438241205062]","[0.0836908756318735, 0.6918076256733912]",503.4080558785845,None,[0 3 0 1 1 1 3 0],space,0,1.0056889279803727,0.002988474190715351,None,503.59955401556,None,1,504.60704588707085,None,None,505.10658797208146,None,,,,,,,,,,,,,,,,,,,,,,,,,,,,,,,,,,,,,,,,,,,,,,,19_DA,19,24,F,2022-12-12_12h18.49.973,dynamic target,2022.1.3,120.11148091548746,
1,2,3,2,L,0,86,86,86,,,,,,,None,506.1390835799084,None,505.1565868495836,None,505.63952167479147,None,1,[0.008706734923180193],[0.5171447117827483],506.1390835799084,None,[3 0 3 0 0 3 1 3],space,0,3.3934798714108183,0.003049730503335013,None,506.15572316765065,None,1,509.5528221841487,None,None,510.0523828705542,None,,,,,,,,,,,,,,,,,,,,,,,,,,,,,,,,,,,,,,,,,,,,,,,19_DA,19,24,F,2022-12-12_12h18.49.973,dynamic target,2022.1.3,120.11148091548746,
1,6,4,0,L,0,87,87,87,,,,,,,None,511.0848374270299,None,510.10234069670514,511.10147990119367,510.5852639762197,None,2,"[0.007702580398472492, 0.34152382614047383]","[0.2244097745842737, 0.8493001706847281]",511.0848374270299,None,[3 3 3 0 0 0 0 3],space,0,2.4182889986659575,0.0028034223996655783,None,511.43456382619115,None,1,513.8574543159393,None,None,514.3570364901594,None,,,,,,,,,,,,,,,,,,,,,,,,,,,,,,,,,,,,,,,,,,,,,,,19_DA,19,24,F,2022-12-12_12h18.49.973,dynamic target,2022.1.3,120.11148091548746,
1,5,2,2,L,0,88,88,88,,,,,,,None,515.389482387367,None,514.415312987685,515.4144784906948,514.8899240101,None,2,"[0.008649647888887557, 0.27579387860168936]","[0.17540376248507528, 0.7839175560584408]",515.389482387367,None,[0 1 1 2 2 0 2 3],space,0,1.3157276509500662,0.0024875194267224288,None,515.6725792371235,None,1,516.9881300660727,None,None,517.4876875453398,None,,,,,,,,,,,,,,,,,,,,,,,,,,,,,,,,,,,,,,,,,,,,,,,19_DA,19,24,F,2022-12-12_12h18.49.973,dynamic target,2022.1.3,120.11148091548746,
1,2,1,0,L,0,89,89,89,,,,,,,None,518.5201680796235,None,517.5376492200558,None,518.0205818002687,None,1,[0.008729505594601505],[0.5169641499851423],518.5201680796235,None,[1 1 3 2 1 0 0 2],space,0,1.763936561274022,0.0031799402568140067,None,518.5368099123607,None,1,520.301959303999,None,None,520.8015296118143,None,,,,,,,,,,,,,,,,,,,,,,,,,,,,,,,,,,,,,,,,,,,,,,,19_DA,19,24,F,2022-12-12_12h18.49.973,dynamic target,2022.1.3,120.11148091548746,
1,1,1,2,L,0,90,90,90,,,,,,,None,521.8339633860438,None,520.8598577442408,None,521.3260711997191,None,1,[0.008628160070657032],[0.5164022596200084],521.8339633860438,None,[0 0 2 1 2 3 1 3],space,0,4.154173908638768,0.0028415873275662307,None,521.8423163096377,None,1,525.9970792605363,None,None,526.4966678490297,None,,,,,,,,,,,,,,,,,,,,,,,,,,,,,,,,,,,,,,,,,,,,,,,19_DA,19,24,F,2022-12-12_12h18.49.973,dynamic target,2022.1.3,120.11148091548746,
1,7,3,0,L,0,91,91,91,,,,,,,None,527.5291041248256,None,526.5466099602108,527.5457703318043,527.0295393332872,None,2,"[0.00865510002040537, 0.4165108532724844]","[0.30860577425664815, 0.9171346413750143]",527.5291041248256,None,[1 3 1 2 1 1 3 1],space,0,2.0827031862681906,0.0026616669510985957,None,527.9454459619901,None,1,530.0269591917495,None,None,530.5265596466494,None,,,,,,,,,,,,,,,,,,,,,,,,,,,,,,,,,,,,,,,,,,,,,,,19_DA,19,24,F,2022-12-12_12h18.49.973,dynamic target,2022.1.3,120.11148091548746,
1,8,1,1,L,0,92,92,92,,,,,,,None,531.5589917531688,None,530.5848409548798,None,531.0594314516202,None,1,[0.008636177914013388],[0.5171498432027875],531.5589917531688,None,[0 3 1 2 2 2 3 3],space,0,7.668499226481799,0.0029201621782704024,None,531.5756598844273,None,1,539.2441131400883,None,None,539.7436683743587,None,,,,,,,,,,,,,,,,,,,,,,,,,,,,,,,,,,,,,,,,,,,,,,,19_DA,19,24,F,2022-12-12_12h18.49.973,dynamic target,2022.1.3,120.11148091548746,
1,1,4,1,L,0,93,93,93,,,,,,,None,540.7761210065528,None,539.8020356338548,None,540.2765530078759,None,1,[0.008634895059003611],[0.5174301469560305],540.7761210065528,None,[3 3 2 1 3 3 1 1],space,0,3.0109867972241773,0.002702076877540094,None,540.7927824028247,None,1,543.8068787311022,None,None,544.3064467939208,None,,,,,,,,,,,,,,,,,,,,,,,,,,,,,,,,,,,,,,,,,,,,,,,19_DA,19,24,F,2022-12-12_12h18.49.973,dynamic target,2022.1.3,120.11148091548746,
1,8,1,2,L,0,94,94,94,,,,,,,None,545.3388968604049,None,544.3564026957902,545.355549918122,544.8393163538949,None,2,"[0.009493766287050676, 0.15927443020336796]","[0.033821502311184304, 0.6592955973064818]",545.3388968604049,None,[1 3 3 1 3 2 0 0],space,0,3.873781316609893,0.0023005433522484964,None,545.4970956169345,None,1,549.3687950722979,None,None,549.8683422887285,None,,,,,,,,,,,,,,,,,,,,,,,,,,,,,,,,,,,,,,,,,,,,,,,19_DA,19,24,F,2022-12-12_12h18.49.973,dynamic target,2022.1.3,120.11148091548746,
1,1,1,1,L,0,95,95,95,,,,,,,None,550.9008180123055,None,549.9267060203729,None,550.4012359022272,None,1,[0.02483446363476105],[0.5337089318109065],550.9008180123055,None,[0 0 2 0 0 2 3 3],space,0,3.9725383586828684,0.0025837335306277964,None,550.9341074506265,None,1,554.905711782314,None,None,555.405280165846,None,,,,,,,,,,,,,,,,,,,,,,,,,,,,,,,,,,,,,,,,,,,,,,,19_DA,19,24,F,2022-12-12_12h18.49.973,dynamic target,2022.1.3,120.11148091548746,
1,2,2,1,L,0,96,96,96,,,,,,,None,556.4377340808951,None,555.4552514619736,556.454433642095,555.9381628750816,None,2,"[0.008565941619963269, 0.3170296397183847]","[0.2253007171802892, 0.8250933437175263]",556.4377340808951,None,[3 2 0 3 0 0 1 0],space,0,3.6644149377953,0.0028252309293748112,None,556.7624669424367,None,1,560.425995318863,None,None,560.9255790966514,None,,,,,,,,,,,,,,,,,,,,,,,,,,,,,,,,,,,,,,,,,,,,,,,19_DA,19,24,F,2022-12-12_12h18.49.973,dynamic target,2022.1.3,120.11148091548746,
1,1,3,2,L,0,97,97,97,,,,,,,None,561.9580233902889,None,560.975514472846,561.9746632987444,561.4584515430488,None,1,[0.09974580233938468],[0.6000530460423761],561.9580233902889,None,[3 3 1 2 2 2 0 3],space,0,2.4481564220459404,0.0027370346688257996,None,562.0579491130011,None,1,564.5058353853656,None,None,565.0054448202487,None,,,,,,,,,,,,,,,,,,,,,,,,,,,,,,,,,,,,,,,,,,,,,,,19_DA,19,24,F,2022-12-12_12h18.49.973,dynamic target,2022.1.3,120.11148091548746,
1,8,1,2,L,0,98,98,98,,,,,,,None,566.0378634567933,None,565.0553741028834,566.0545213252135,565.5383002688213,None,3,"[0.008622387225841521, 0.18342641513299895, 0.7506127234810265]","[0.10147958048037253, 0.6592417174088041, 1.2583329431308812]",566.0378634567933,None,[1 3 2 3 2 1 0 3],space,0,1.5022322759614326,0.00256801856085076,None,566.795538616172,None,1,568.3026016934964,None,None,568.8021588520502,None,,,,,,,,,,,,,,,,,,,,,,,,,,,,,,,,,,,,,,,,,,,,,,,19_DA,19,24,F,2022-12-12_12h18.49.973,dynamic target,2022.1.3,120.11148091548746,
1,2,4,0,L,0,99,99,99,,,,,,,None,569.8346111635292,None,568.8604584409586,569.8596204161186,569.3350556726873,None,2,"[0.008622387225841521, 0.20840680349101603]","[0.10884637365779781, 0.7084305363041494]",569.8346111635292,None,[1 0 2 2 1 0 0 0],space,0,0.9757490233096178,0.0030513340716424864,None,570.0427783939031,None,0,571.0169516421502,None,None,571.516528684952,None,,,,,,,,,,,,,,,,,,,,,,,,,,,,,,,,,,,,,,,,,,,,,,,19_DA,19,24,F,2022-12-12_12h18.49.973,dynamic target,2022.1.3,120.11148091548746,
1,1,2,2,L,0,100,100,100,,,,,,,None,572.5489758650128,None,571.5664669475682,None,572.0493995277811,None,1,[0.008682681396749103],[0.5173762670601718],572.5489758650128,None,[1 3 2 2 1 2 0 2],space,0,3.1074549057757395,0.002241211323052994,None,572.5656330920065,None,1,575.6796407108814,None,None,576.1791978694351,None,,,,,,,,,,,,,,,,,,,,,,,,,,,,,,,,,,,,,,,,,,,,,,,19_DA,19,24,F,2022-12-12_12h18.49.973,dynamic target,2022.1.3,120.11148091548746,
1,8,2,2,L,0,101,101,101,,,,,,,None,577.2116630094606,None,576.237496816917,577.2366360214055,576.7120722401141,None,1,[0.06655065384074987],[0.5756031181081198],577.2116630094606,None,[1 0 1 0 2 2 2 2],space,0,2.99451814987151,0.002418886699160794,None,577.2865907045616,None,1,580.2840294851321,None,None,580.783584398691,None,,,,,,,,,,,,,,,,,,,,,,,,,,,,,,,,,,,,,,,,,,,,,,,19_DA,19,24,F,2022-12-12_12h18.49.973,dynamic target,2022.1.3,120.11148091548746,
1,7,4,2,L,0,102,102,102,,,,,,,None,581.8160581979864,None,580.8335540912485,581.8326849571804,581.3164728807715,None,2,"[0.008685567820066353, 0.25002485530967533]","[0.14315536076173885, 0.7503686603722599]",581.8160581979864,None,[3 2 2 0 3 0 0 1],space,0,1.351893249533532,0.002774878881609766,None,582.0658425180372,None,1,583.4229982495435,None,None,583.9225948558802,None,,,,,,,,,,,,,,,,,,,,,,,,,,,,,,,,,,,,,,,,,,,,,,,19_DA,19,24,F,2022-12-12_12h18.49.973,dynamic target,2022.1.3,120.11148091548746,
1,6,3,2,L,0,103,103,103,,,,,,,None,584.9550308109629,None,583.9809079147635,584.9800169721675,584.4554621708594,None,2,"[0.008642271472126595, 0.37495437847792346]","[0.2670319809258217, 0.8756474407364294]",584.9550308109629,None,[3 1 1 3 3 1 3 3],space,0,2.663806864662547,0.0026093906235473696,None,585.329716431379,None,1,587.9941149040133,None,None,588.4936563475973,None,,,,,,,,,,,,,,,,,,,,,,,,,,,,,,,,,,,,,,,,,,,,,,,19_DA,19,24,F,2022-12-12_12h18.49.973,dynamic target,2022.1.3,120.11148091548746,
1,5,4,2,L,0,104,104,104,,,,,,,None,589.526131750461,None,588.5436462451162,589.5427905810229,589.0265496403827,None,2,"[0.009468109192312113, 0.5007421314494422]","[0.05931695683648286, 1.0084610682442872]",589.526131750461,None,[0 0 0 1 0 3 0 2],space,0,2.5349691246156,0.0027075290090579074,None,590.0340354183354,None,1,592.5735165549195,None,None,593.073094239148,None,,,,,,,,,,,,,,,,,,,,,,,,,,,,,,,,,,,,,,,,,,,,,,,19_DA,19,24,F,2022-12-12_12h18.49.973,dynamic target,2022.1.3,120.11148091548746,
1,4,4,2,L,0,105,105,105,,,,,,,None,594.1055423813505,None,593.131376188805,None,593.6059753448153,None,1,[0.00867626712351921],[0.5168522209096409],594.1055423813505,None,[1 2 2 0 1 1 0 3],space,0,1.0869199297048908,0.0032851343439688208,None,594.1222073054723,None,1,595.2129349599072,None,None,595.7125132855641,None,,,,,,,,,,,,,,,,,,,,,,,,,,,,,,,,,,,,,,,,,,,,,,,19_DA,19,24,F,2022-12-12_12h18.49.973,dynamic target,2022.1.3,120.11148091548746,
1,3,2,2,L,0,106,106,106,,,,,,,None,596.7449591827699,None,595.7708096673359,596.7699463061163,596.2370494213355,None,1,[0.12567357890111452],[0.6335304225776781],596.7449591827699,None,[1 1 1 3 0 2 1 3],space,0,0.7556672798091313,0.003092064709562692,None,596.869854068862,None,1,597.6275340389457,None,None,598.1270934424944,None,,,,,,,,,,,,,,,,,,,,,,,,,,,,,,,,,,,,,,,,,,,,,,,19_DA,19,24,F,2022-12-12_12h18.49.973,dynamic target,2022.1.3,120.11148091548746,
1,2,1,2,L,0,107,107,107,,,,,,,None,599.1595258697271,None,598.1770778878818,599.1761943216989,598.6600168823679,None,2,"[0.008753879834330291, 0.9172359868971398]","[0.4415717407646298, 1.4248856495396467]",599.1595258697271,None,[0 3 1 0 3 3 0 0],space,0,1.0285035368724493,0.0027681438932631863,None,600.0837845240258,None,1,601.116228881805,None,None,601.6157853989322,None,,,,,,,,,,,,,,,,,,,,,,,,,,,,,,,,,,,,,,,,,,,,,,,19_DA,19,24,F,2022-12-12_12h18.49.973,dynamic target,2022.1.3,120.11148091548746,
1,6,4,0,L,0,108,108,108,,,,,,,None,602.6482466903944,None,601.6741080792253,None,602.1487069145223,None,1,[0.008642592187243281],[0.517654325818512],602.6482466903944,None,[2 0 1 0 1 1 2 0],space,0,3.9511124400123663,0.0024923301316448487,None,602.6649106523764,None,1,606.6198542292186,None,None,607.1194024077892,None,,,,,,,,,,,,,,,,,,,,,,,,,,,,,,,,,,,,,,,,,,,,,,,19_DA,19,24,F,2022-12-12_12h18.49.973,dynamic target,2022.1.3,120.11148091548746,
1,7,2,1,L,0,109,109,109,,,,,,,None,608.1435469521621,None,607.1527238533363,608.1518771692263,607.6439754256353,None,2,"[0.008643233613838675, 0.3166659504058771]","[0.23372233764348493, 0.8171431723585556]",608.1435469521621,None,[0 3 1 2 1 3 0 3],space,0,1.243561621327899,0.002365327516599791,None,608.4599916101288,None,1,609.7088683104739,None,None,610.208449201839,None,,,,,,,,,,,,,,,,,,,,,,,,,,,,,,,,,,,,,,,,,,,,,,,19_DA,19,24,F,2022-12-12_12h18.49.973,dynamic target,2022.1.3,120.11148091548746,
1,6,2,2,L,0,110,110,110,,,,,,,None,611.2409024754597,None,610.2667712407056,None,610.7413315903614,None,1,[0.008623349365734612],[0.5174484276358271],611.2409024754597,None,[1 0 3 1 1 2 1 1],space,0,2.989874857245013,0.0022537191543960944,None,611.2575401389204,None,1,614.2466698695262,None,None,614.7462574958796,None,,,,,,,,,,,,,,,,,,,,,,,,,,,,,,,,,,,,,,,,,,,,,,,19_DA,19,24,F,2022-12-12_12h18.49.973,dynamic target,2022.1.3,120.11148091548746,
1,5,4,2,L,0,111,111,111,,,,,,,None,615.7786809431291,None,614.7962066627624,615.7953314351362,615.2791190380121,None,2,"[0.008603465119449538, 0.2749946601179545]","[0.16709439180885965, 0.7750305800491333]",615.7786809431291,None,[2 2 1 1 0 3 3 1],space,0,2.402649075456793,0.0031029689744173083,None,616.0534475758213,None,1,618.459732794192,None,None,618.9593024605789,None,,,,,,,,,,,,,,,,,,,,,,,,,,,,,,,,,,,,,,,,,,,,,,,19_DA,19,24,F,2022-12-12_12h18.49.973,dynamic target,2022.1.3,120.11148091548746,
1,4,2,2,L,0,112,112,112,,,,,,,None,619.9917579791945,None,619.0176177644589,None,619.4921838869595,None,1,[0.008628480785773718],[0.5170921147418994],619.9917579791945,None,[2 2 0 0 2 0 1 1],space,0,3.487613184388465,0.003001623452291824,None,620.0084107161983,None,1,623.4971001069262,None,None,623.9966646418931,None,,,,,,,,,,,,,,,,,,,,,,,,,,,,,,,,,,,,,,,,,,,,,,,19_DA,19,24,F,2022-12-12_12h18.49.973,dynamic target,2022.1.3,120.11148091548746,
1,3,1,2,L,0,113,113,113,,,,,,,None,625.0291175948005,None,624.0549783422048,625.0541136981301,624.5295508789786,None,1,[0.0585696939688205],[0.5665394288607786],625.0291175948005,None,[3 3 1 1 3 0 1 0],space,0,3.6484254366787354,0.003225802312954329,None,625.0957272599571,None,1,628.7426461957257,None,None,629.242158454365,None,,,,,,,,,,,,,,,,,,,,,,,,,,,,,,,,,,,,,,,,,,,,,,,19_DA,19,24,F,2022-12-12_12h18.49.973,dynamic target,2022.1.3,120.11148091548746,
1,2,2,2,L,0,114,114,114,,,,,,,None,630.2746367436521,None,629.2921345611958,630.2912891599408,629.7750645756987,None,2,"[0.008801345456959098, 0.21677775119314902]","[0.10116945035406388, 0.7170016093405138]",630.2746367436521,None,[2 2 3 0 0 2 1 1],space,0,1.4199063577434572,0.002931066443125019,None,630.4910941018825,None,1,631.9149002291815,None,None,632.4144641227218,None,,,,,,,,,,,,,,,,,,,,,,,,,,,,,,,,,,,,,,,,,,,,,,,19_DA,19,24,F,2022-12-12_12h18.49.973,dynamic target,2022.1.3,120.11148091548746,
1,3,3,1,L,0,115,115,115,,,,,,,None,633.4469311870307,None,632.4644469645409,None,632.9473503598074,None,1,[0.00867819140512438],[0.51749268612366],633.4469311870307,None,[1 1 0 3 1 1 1 2],space,0,3.0392201844151714,0.0027373553821234964,None,633.4635701333464,None,1,636.5026439635585,None,None,637.002222930642,None,,,,,,,,,,,,,,,,,,,,,,,,,,,,,,,,,,,,,,,,,,,,,,,19_DA,19,24,F,2022-12-12_12h18.49.973,dynamic target,2022.1.3,120.11148091548746,
1,2,4,2,L,0,116,116,116,,,,,,,None,638.0346457364631,None,637.052175946088,638.0513206027099,637.535098584176,None,3,"[0.009667593101767125, 0.8667056226877321, 1.0005064068973297]","[0.48415449932508636, 0.9172667754100985, 1.5076756404487242]",638.0346457364631,None,[3 3 2 1 1 1 2 2],space,0,0.9650282064903877,0.0033258649818890262,None,639.0421420979674,None,1,640.007968452037,None,None,640.507554154107,None,,,,,,,,,,,,,,,,,,,,,,,,,,,,,,,,,,,,,,,,,,,,,,,19_DA,19,24,F,2022-12-12_12h18.49.973,dynamic target,2022.1.3,120.11148091548746,
1,1,1,2,L,0,117,117,117,,,,,,,None,641.5400138420009,None,640.5658835693885,None,641.0404201862311,None,1,[0.008664400716952514],[0.5175500938730693],641.5400138420009,None,[3 0 0 0 0 3 2 0],space,0,1.4900855661308015,0.002610673478557146,None,641.5566633718681,None,1,643.047053186514,None,None,643.5466225321876,None,,,,,,,,,,,,,,,,,,,,,,,,,,,,,,,,,,,,,,,,,,,,,,,19_DA,19,24,F,2022-12-12_12h18.49.973,dynamic target,2022.1.3,120.11148091548746,
1,8,4,2,L,0,118,118,118,,,,,,,None,644.5790665051118,None,643.5965768304886,None,644.0795039585682,None,1,[0.008668249281981844],[0.5170603640872287],644.5790665051118,None,[3 3 3 1 3 0 2 2],space,0,2.0350756015577645,0.0030343362468556734,None,644.5957352777987,None,1,646.6273169157867,None,None,647.1268939585867,None,,,,,,,,,,,,,,,,,,,,,,,,,,,,,,,,,,,,,,,,,,,,,,,19_DA,19,24,F,2022-12-12_12h18.49.973,dynamic target,2022.1.3,120.11148091548746,
1,8,1,0,L,0,119,119,119,,,,,,,None,648.1593494772042,None,647.1852493516762,648.1843269791389,647.6597721778307,None,2,"[0.008626556502349558, 0.21675465980843]","[0.058855449855400366, 0.7168813417119964]",648.1593494772042,None,[1 3 1 1 0 2 1 3],space,0,0.8782992101878335,0.002955440682853805,None,648.375829606106,None,1,649.2584028587135,None,space,649.7663427672323,None,5.060835324153231,,,,,,,,,,,,,,,,,,,,,,,,,,,,,,,,,,,,,,,,,,,,,,19_DA,19,24,F,2022-12-12_12h18.49.973,dynamic target,2022.1.3,120.11148091548746,
1,7,4,2,L,0,120,120,120,,,,,,,None,655.8694486867735,None,654.8953026991894,None,655.3698640109851,None,1,[0.008740089146158425],[0.5171989123955427],655.8694486867735,None,[3 0 2 1 0 3 2 2],space,0,3.3040248088491353,0.0030821225846011657,None,655.8860776909642,None,1,659.1915792775344,None,None,659.6911627346095,None,,,,,,,,,,,,,,,,,,,,,,,,,,,,,,,,,,,,,,,,,,,,,,,19_DA,19,24,F,2022-12-12_12h18.49.973,dynamic target,2022.1.3,120.11148091548746,
1,6,1,2,L,0,121,121,121,,,,,,,None,660.7235964446954,None,659.7411176743371,660.7402482195575,660.2240226731737,None,1,[0.049814531279480434],[0.5503837980577373],660.7235964446954,None,[0 1 0 2 2 0 0 2],space,0,3.07198621801399,0.0026065042002301197,None,660.7735591456949,None,1,663.8459176035249,None,None,664.3455209448481,None,,,,,,,,,,,,,,,,,,,,,,,,,,,,,,,,,,,,,,,,,,,,,,,19_DA,19,24,F,2022-12-12_12h18.49.973,dynamic target,2022.1.3,120.11148091548746,
1,5,3,2,L,0,122,122,122,,,,,,,None,665.3696431034047,None,664.378801339044,None,664.8700654191762,None,1,[0.008682360683451407],[0.5091467540896701],665.3696431034047,None,[3 1 0 0 1 1 0 2],space,0,1.8908198721692315,0.0024948958398454124,None,665.3779562585023,None,1,667.2680223447624,None,None,667.7676093296892,None,,,,,,,,,,,,,,,,,,,,,,,,,,,,,,,,,,,,,,,,,,,,,,,19_DA,19,24,F,2022-12-12_12h18.49.973,dynamic target,2022.1.3,120.11148091548746,
1,6,1,1,L,0,123,123,123,,,,,,,None,668.8000738282881,None,667.825914370731,668.8250417088129,668.3004721546749,None,2,"[0.008711224914804916, 0.25008226305726566]","[0.14235197299785796, 0.7502679562767298]",668.8000738282881,None,[0 3 1 3 3 0 0 0],space,0,2.7952375747936458,0.002977249212563038,None,669.0498126069979,None,1,671.8474288063735,None,None,672.3470016798971,None,,,,,,,,,,,,,,,,,,,,,,,,,,,,,,,,,,,,,,,,,,,,,,,19_DA,19,24,F,2022-12-12_12h18.49.973,dynamic target,2022.1.3,120.11148091548746,
1,5,2,2,L,0,124,124,124,,,,,,,None,673.3794681027794,None,672.3969441117933,673.3961282161963,672.8798779748595,None,2,"[0.008708338491487666, 0.23349206522289023]","[0.12544074077231926, 0.7341004590689408]",673.3794681027794,None,[2 2 3 3 0 2 0 3],space,0,2.1999006233818363,0.0025391543276782613,None,673.6125967994049,None,1,675.8107131838333,None,None,676.3102841330752,None,,,,,,,,,,,,,,,,,,,,,,,,,,,,,,,,,,,,,,,,,,,,,,,19_DA,19,24,F,2022-12-12_12h18.49.973,dynamic target,2022.1.3,120.11148091548746,
1,4,1,2,L,0,125,125,125,,,,,,,None,677.3427383688377,None,676.3602519013511,677.3594032929595,676.8431645973142,None,2,"[0.008712187054698006, 0.17512121373329137]","[0.05882786847905663, 0.6757020262048172]",677.3427383688377,None,[3 1 0 2 1 1 1 2],space,0,3.0147949514321226,0.0024240181173809106,None,677.5175699781212,None,1,680.5316653442569,None,None,681.0312350106439,None,,,,,,,,,,,,,,,,,,,,,,,,,,,,,,,,,,,,,,,,,,,,,,,19_DA,19,24,F,2022-12-12_12h18.49.973,dynamic target,2022.1.3,120.11148091548746,
1,3,4,2,L,0,126,126,126,,,,,,,None,682.0637030370945,None,681.089544220964,682.088700102564,681.5641369626992,None,2,"[0.0088125704369304, 0.1334605069969257]","[0.04221169283664494, 0.6424738441965019]",682.0637030370945,None,[1 2 3 1 0 3 0 0],space,0,3.9111085401345917,0.0026029763503174763,None,682.2052583573168,None,1,686.1185691295123,None,None,686.6181403994675,None,,,,,,,,,,,,,,,,,,,,,,,,,,,,,,,,,,,,,,,,,,,,,,,19_DA,19,24,F,2022-12-12_12h18.49.973,dynamic target,2022.1.3,120.11148091548746,
1,3,4,0,L,0,127,127,127,,,,,,,None,687.6506109916263,None,686.6680998291868,687.667238712962,687.1510131665782,None,1,[0.17467959100031294],[0.6748864513228909],687.6506109916263,None,[3 2 2 0 3 1 0 3],space,0,0.9469803649899404,0.002872055125408224,None,687.8254358659233,None,1,688.7746335365155,None,None,689.274237198552,None,,,,,,,,,,,,,,,,,,,,,,,,,,,,,,,,,,,,,,,,,,,,,,,19_DA,19,24,F,2022-12-12_12h18.49.973,dynamic target,2022.1.3,120.11148091548746,
1,2,1,2,L,0,128,128,128,,,,,,,None,690.3066372337034,None,689.3324854732728,690.3316371855963,689.8070692350266,None,1,[0.9333435106473189],[1.4409617433484527],690.3066372337034,None,[0 1 2 0 1 0 3 1],space,0,0.8534698779712926,0.003315602141810814,None,691.2475159122077,None,1,692.1051081350306,None,None,692.6046707457159,None,,,,,,,,,,,,,,,,,,,,,,,,,,,,,,,,,,,,,,,,,,,,,,,19_DA,19,24,F,2022-12-12_12h18.49.973,dynamic target,2022.1.3,120.11148091548746,
1,4,3,0,L,0,129,129,129,,,,,,,None,693.6371499971447,None,692.6630200452455,693.6621425726244,693.1375707734896,None,2,"[0.008764142672589514, 0.38329934837383917]","[0.29255726182418584, 0.8838054345578712]",693.6371499971447,None,[3 3 3 2 3 1 0 2],space,0,3.3598049352494854,0.0026709676494647283,None,694.0201417811022,None,1,697.3839648292542,None,None,697.8835098006881,None,,,,,,,,,,,,,,,,,,,,,,,,,,,,,,,,,,,,,,,,,,,,,,,19_DA,19,24,F,2022-12-12_12h18.49.973,dynamic target,2022.1.3,120.11148091548746,
1,3,3,2,L,0,130,130,130,,,,,,,None,698.915950887189,None,697.9418629487827,698.9409290305521,698.4163697392523,None,1,[0.09134278326746426],[0.5919065979142033],698.915950887189,None,[1 0 0 0 2 2 2 3],space,0,1.2841726321985334,0.0026719297929957975,None,699.0075528071102,None,1,700.2897959170587,None,None,700.7893594898857,None,,,,,,,,,,,,,,,,,,,,,,,,,,,,,,,,,,,,,,,,,,,,,,,19_DA,19,24,F,2022-12-12_12h18.49.973,dynamic target,2022.1.3,120.11148091548746,
1,7,2,0,L,0,131,131,131,,,,,,,None,701.8218188570663,None,700.8393323895798,701.8384671040767,701.3222332191381,None,2,"[0.008686529961778433, 0.4582757919542928]","[0.3419558274636074, 0.9584781622852461]",701.8218188570663,None,[1 3 0 1 0 0 1 1],space,0,3.6278401085601217,0.0025494171677564736,None,702.2797575789446,None,1,705.9099833677883,None,None,706.4095681077184,None,,,,,,,,,,,,,,,,,,,,,,,,,,,,,,,,,,,,,,,,,,,,,,,19_DA,19,24,F,2022-12-12_12h18.49.973,dynamic target,2022.1.3,120.11148091548746,
1,6,4,2,L,0,132,132,132,,,,,,,None,707.4419947621045,None,706.4678612823536,707.4669754711758,706.9424383091191,None,2,"[0.008562734481529333, 0.38414410820223566]","[0.2669062611657864, 0.8918396328990639]",707.4419947621045,None,[3 2 3 0 1 2 2 3],space,0,1.833555482868178,0.002556793579060468,None,707.8333623044691,None,1,709.6651043634374,None,None,710.1646724262561,None,,,,,,,,,,,,,,,,,,,,,,,,,,,,,,,,,,,,,,,,,,,,,,,19_DA,19,24,F,2022-12-12_12h18.49.973,dynamic target,2022.1.3,120.11148091548746,
1,5,1,2,L,0,133,133,133,,,,,,,None,711.1971439805566,None,710.2230101800924,None,710.6975618704782,None,1,[0.008756445544349845],[0.5172608101365768],711.1971439805566,None,[3 1 0 3 1 0 3 2],space,0,2.1016124647085235,0.002724206118728034,None,711.2137893411436,None,1,713.3203326698822,None,None,713.8198956012826,None,,,,,,,,,,,,,,,,,,,,,,,,,,,,,,,,,,,,,,,,,,,,,,,19_DA,19,24,F,2022-12-12_12h18.49.973,dynamic target,2022.1.3,120.11148091548746,
1,6,3,1,L,0,134,134,134,,,,,,,None,714.8523427813434,None,713.8781749852315,714.8773196418515,714.3527683683951,None,2,"[0.008720525611352059, 0.2583140210244892]","[0.11713521865931398, 0.7584984313889436]",714.8523427813434,None,[1 3 2 1 1 0 3 2],space,0,1.500900352059034,0.0029794942074659048,None,715.1104454520555,None,1,716.6091670873357,None,None,717.1087511858374,None,,,,,,,,,,,,,,,,,,,,,,,,,,,,,,,,,,,,,,,,,,,,,,,19_DA,19,24,F,2022-12-12_12h18.49.973,dynamic target,2022.1.3,120.11148091548746,
1,5,1,2,L,0,135,135,135,,,,,,,None,718.1411990073266,None,717.1586955420153,718.1578543100386,717.6416422336297,None,2,"[0.00866183500693296, 0.2754555256706226]","[0.14325670628204534, 0.7754869556119957]",718.1411990073266,None,[0 1 0 1 3 1 2 0],space,0,2.4666667326691822,0.0028162509479443543,None,718.4159524907573,None,1,720.8805149122236,None,None,721.3800897100288,None,,,,,,,,,,,,,,,,,,,,,,,,,,,,,,,,,,,,,,,,,,,,,,,19_DA,19,24,F,2022-12-12_12h18.49.973,dynamic target,2022.1.3,120.11148091548746,
1,4,1,2,L,0,136,136,136,,,,,,,None,722.412532720813,None,721.4383963546388,None,721.9129720985511,None,1,[0.008791724047114258],[0.5168756330076576],722.412532720813,None,[2 3 2 0 0 3 0 2],space,0,2.102621109226675,0.003189882381775533,None,722.4292024556398,None,1,724.5357310315485,None,None,725.0352946043773,None,,,,,,,,,,,,,,,,,,,,,,,,,,,,,,,,,,,,,,,,,,,,,,,19_DA,19,24,F,2022-12-12_12h18.49.973,dynamic target,2022.1.3,120.11148091548746,
1,3,2,2,L,0,137,137,137,,,,,,,None,726.067752688703,None,725.0936320375004,726.0927362841976,725.568189500731,None,1,[0.08306003182769928],[0.5835324430754554],726.067752688703,None,[1 2 0 3 2 3 0 2],space,0,2.4114109731326607,0.0024515994955436327,None,726.1510256744114,None,1,728.5656061520567,None,None,729.0652001926834,None,,,,,,,,,,,,,,,,,,,,,,,,,,,,,,,,,,,,,,,,,,,,,,,19_DA,19,24,F,2022-12-12_12h18.49.973,dynamic target,2022.1.3,120.11148091548746,
1,7,1,0,L,0,138,138,138,,,,,,,None,730.0976454484626,None,729.1151724509509,730.1142856776314,729.5980559619711,None,2,"[0.00968908091817866, 0.15041567699699954]","[0.05094408485274471, 0.6585566729936545]",730.0976454484626,None,[1 3 2 1 3 2 3 3],space,0,2.882342447524934,0.002813043809510418,None,730.2558400357138,None,1,733.1367141472565,None,None,733.6362818893618,None,,,,,,,,,,,,,,,,,,,,,,,,,,,,,,,,,,,,,,,,,,,,,,,19_DA,19,24,F,2022-12-12_12h18.49.973,dynamic target,2022.1.3,120.11148091548746,
1,6,3,2,L,0,139,139,139,,,,,,,None,734.6687678757789,None,733.6862461297878,None,734.1691543357592,None,1,[0.008667287140269764],[0.5171982709689473],734.6687678757789,None,[1 2 0 0 3 2 1 0],space,0,2.517597988975467,0.0030834054414299317,None,734.6853753921514,None,1,737.1999236060019,None,None,737.6994554281742,None,,,,,,,,,,,,,,,,,,,,,,,,,,,,,,,,,,,,,,,,,,,,,,,19_DA,19,24,F,2022-12-12_12h18.49.973,dynamic target,2022.1.3,120.11148091548746,
1,5,4,2,L,0,140,140,140,,,,,,,None,738.731932113893,None,737.7577623934976,None,738.2323641152179,None,1,[0.008691340666700853],[0.5177303349610156],738.731932113893,None,[2 0 1 2 2 0 0 3],space,0,7.700352508954893,0.0024259423989860807,None,738.7485903030283,None,1,746.4503320348704,None,None,746.9498879105691,None,,,,,,,,,,,,,,,,,,,,,,,,,,,,,,,,,,,,,,,,,,,,,,,19_DA,19,24,F,2022-12-12_12h18.49.973,dynamic target,2022.1.3,120.11148091548746,
1,7,2,0,L,0,141,141,141,,,,,,,None,747.982356257733,None,746.9998630552582,None,747.4827917869079,None,1,[0.008708338491487666],[0.5174586904740863],747.982356257733,None,[1 0 1 0 3 2 1 2],space,0,2.7700609096627886,0.0027219611256441567,None,747.9990083533085,None,1,750.7716306943512,None,None,751.2712058128715,None,,,,,,,,,,,,,,,,,,,,,,,,,,,,,,,,,,,,,,,,,,,,,,,19_DA,19,24,F,2022-12-12_12h18.49.973,dynamic target,2022.1.3,120.11148091548746,
1,6,3,2,L,0,142,142,142,,,,,,,None,752.3036789707403,None,751.3211706947222,752.3203147099175,751.8040965399487,None,1,[0.10813278572641138],[0.6171150136979122],752.3036789707403,None,[3 0 3 3 1 1 1 2],space,0,5.212686194858179,0.002470842317052302,None,752.4202487711846,None,1,757.6324383925057,None,None,758.132012228171,None,,,,,,,,,,,,,,,,,,,,,,,,,,,,,,,,,,,,,,,,,,,,,,,19_DA,19,24,F,2022-12-12_12h18.49.973,dynamic target,2022.1.3,120.11148091548746,
1,5,3,2,L,0,143,143,143,,,,,,,None,759.1644635775101,None,758.1903153449293,None,758.6648901266999,None,1,[0.025292763481047587],[0.5337333060506353],759.1644635775101,None,[3 1 3 1 2 0 1 2],space,0,2.2107285585698264,0.0026809097744262544,None,759.1977953500354,None,1,761.4125545293427,None,None,761.912101104345,None,,,,,,,,,,,,,,,,,,,,,,,,,,,,,,,,,,,,,,,,,,,,,,,19_DA,19,24,F,2022-12-12_12h18.49.973,dynamic target,2022.1.3,120.11148091548746,
1,4,2,2,L,0,144,144,144,,,,,,,None,762.9446066542951,None,761.970413842515,762.9695572162818,762.4449918314222,None,1,[0.09145727805116621],[0.5917751053057145],762.9446066542951,None,[3 0 3 2 2 3 2 3],space,0,1.2045314081751712,0.0027450525103631662,None,763.0361579014552,None,1,764.2434460556378,None,None,764.743030795568,None,,,,,,,,,,,,,,,,,,,,,,,,,,,,,,,,,,,,,,,,,,,,,,,19_DA,19,24,F,2022-12-12_12h18.49.973,dynamic target,2022.1.3,120.11148091548746,
1,3,4,2,L,0,145,145,145,,,,,,,None,765.7754712406422,None,764.7929645681943,765.7921371269058,765.2758968276921,None,1,[0.09150057439910597],[0.5920499569274398],765.7754712406422,None,[2 0 1 0 1 3 0 0],space,0,1.2218797731457016,0.0026677605128497817,None,765.8670481448953,None,1,767.0910140517481,None,None,767.5905773038618,None,,,,,,,,,,,,,,,,,,,,,,,,,,,,,,,,,,,,,,,,,,,,,,,19_DA,19,24,F,2022-12-12_12h18.49.973,dynamic target,2022.1.3,120.11148091548746,
1,2,4,2,L,0,146,146,146,,,,,,,None,768.6230533481539,None,767.6405437892827,None,768.123471879504,None,1,[0.007913289284260827],[0.5167149554563366],768.6230533481539,None,[3 2 3 0 0 3 1 0],space,0,1.4241984688924276,0.002371100363234291,None,768.6396983880277,None,1,770.0634807825154,None,None,770.5630430724874,None,,,,,,,,,,,,,,,,,,,,,,,,,,,,,,,,,,,,,,,,,,,,,,,19_DA,19,24,F,2022-12-12_12h18.49.973,dynamic target,2022.1.3,120.11148091548746,
1,1,4,2,L,0,147,147,147,,,,,,,None,771.5955056468047,None,770.6130108407633,None,771.0959238574414,None,1,[0.008620142229119665],[0.5173432335504913],771.5955056468047,None,[1 1 0 3 3 2 0 1],space,0,1.748368798642332,0.002702718302316498,None,771.6121420274103,None,1,773.3606717155544,None,None,773.8602317605315,None,,,,,,,,,,,,,,,,,,,,,,,,,,,,,,,,,,,,,,,,,,,,,,,19_DA,19,24,F,2022-12-12_12h18.49.973,dynamic target,2022.1.3,120.11148091548746,
1,8,4,2,L,0,148,148,148,,,,,,,None,774.8926908069989,None,773.9102120366406,None,774.393121525467,None,1,[0.008458181822788902],[0.5173929441716609],774.8926908069989,None,[3 1 2 3 0 2 0 2],space,0,7.026431085087097,0.002662629094629665,None,774.9093294325994,None,1,781.936672518621,None,None,782.4362405814396,None,,,,,,,,,,,,,,,,,,,,,,,,,,,,,,,,,,,,,,,,,,,,,,,19_DA,19,24,F,2022-12-12_12h18.49.973,dynamic target,2022.1.3,120.11148091548746,
1,7,2,2,L,0,149,149,149,,,,,,,None,783.4686957793438,None,782.4861958418824,783.4853667970256,782.9691136692654,None,4,"[0.007663774042157456, 0.46553739104456326, 0.7660040935879806, 0.9741398940223007]","[0.4159489629073505, 0.48219012804656813, 0.8663448198003607, 1.482281531445551]",783.4686957793438,None,[0 2 1 0 0 0 1 2],space,0,1.2607406494753377,0.002481746580087929,None,784.4511851332536,None,1,785.7167527355268,None,None,786.2163371547437,None,,,,,,,,,,,,,,,,,,,,,,,,,,,,,,,,,,,,,,,,,,,,,,,19_DA,19,24,F,2022-12-12_12h18.49.973,dynamic target,2022.1.3,120.11148091548746,
1,6,3,2,L,0,150,150,150,,,,,,,None,787.2487990876325,None,786.2663020365962,787.265420394695,786.7492176189826,None,2,"[0.00864547861056053, 0.7748359068482387]","[0.30001128912226704, 1.2749590609000734]",787.2487990876325,None,[0 1 3 1 3 1 0 2],space,0,1.4008938094993937,0.0028265137843845878,None,788.0231353225699,None,1,789.4219325179929,None,None,789.9214941665383,None,,,,,,,,,,,,,,,,,,,,,,,,,,,,,,,,,,,,,,,,,,,,,,,19_DA,19,24,F,2022-12-12_12h18.49.973,dynamic target,2022.1.3,120.11148091548746,
1,5,2,2,L,0,151,151,151,,,,,,,None,790.9539528922924,None,789.9798614260344,790.9789268663772,790.4543832900472,None,4,"[0.008703848499862943, 0.3500795049203589, 1.0497978541698103, 1.2585795719496673]","[0.24203619831132528, 0.8503793722102273, 1.126230658559507, 1.7661978046508011]",790.9539528922924,None,[1 0 3 3 3 3 0 1],space,0,1.6996934423477796,0.0026536491113802185,None,792.2195503209368,None,1,793.9180964616935,None,None,794.4176577895256,None,,,,,,,,,,,,,,,,,,,,,,,,,,,,,,,,,,,,,,,,,,,,,,,19_DA,19,24,F,2022-12-12_12h18.49.973,dynamic target,2022.1.3,120.11148091548746,
1,4,4,2,L,0,152,152,152,,,,,,,None,795.4500927824665,None,794.4759859219521,None,794.9505337637729,None,1,[0.008669852850289317],[0.5170760790570057],795.4500927824665,None,[1 2 1 0 0 1 0 2],space,0,5.124925141943095,0.0030019441655895207,None,795.4667638001483,None,1,800.5957137899823,None,None,801.0952860220792,None,,,,,,,,,,,,,,,,,,,,,,,,,,,,,,,,,,,,,,,,,,,,,,,19_DA,19,24,F,2022-12-12_12h18.49.973,dynamic target,2022.1.3,120.11148091548746,
1,3,3,2,L,0,153,153,153,,,,,,,None,802.1277271085801,None,801.1452390375252,802.144394598412,801.62815012992,None,1,[0.0581033762809966],[0.5583240272917465],802.1277271085801,None,[2 0 3 3 0 1 3 1],space,0,3.621263233169884,0.0028050259679730516,None,802.1860232337804,None,1,805.8079172019916,None,None,806.3075016212066,None,,,,,,,,,,,,,,,,,,,,,,,,,,,,,,,,,,,,,,,,,,,,,,,19_DA,19,24,F,2022-12-12_12h18.49.973,dynamic target,2022.1.3,120.11148091548746,
1,4,1,1,L,0,154,154,154,,,,,,,None,807.3399504048357,None,806.3657909472786,807.3649606195668,806.8403846511555,None,1,[0.541239288964789],[1.0423637111180142],807.3399504048357,None,[2 2 1 0 3 2 2 1],space,0,15.188040631579497,0.0016199889287236147,None,807.881154736011,None,1,823.0681625607831,None,None,823.5677463385715,None,,,,,,,,,,,,,,,,,,,,,,,,,,,,,,,,,,,,,,,,,,,,,,,19_DA,19,24,F,2022-12-12_12h18.49.973,dynamic target,2022.1.3,120.11148091548746,
1,3,4,2,L,0,155,155,155,,,,,,,None,824.600194480774,None,823.6177099375691,824.6168517077676,824.1006200678239,None,1,[0.5750710541160515],[1.0755351268071536],824.600194480774,None,[3 1 2 2 3 3 0 0],space,0,2.374299269200492,0.002020560310484143,None,825.1746917781202,None,0,827.5560020602643,None,None,828.0555707645095,None,,,,,,,,,,,,,,,,,,,,,,,,,,,,,,,,,,,,,,,,,,,,,,,19_DA,19,24,F,2022-12-12_12h18.49.973,dynamic target,2022.1.3,120.11148091548746,
1,2,1,2,L,0,156,156,156,,,,,,,None,829.0880153788621,None,828.1138790126879,829.1129880700919,828.5884403244854,None,2,"[0.008593522994488012, 0.21668666850928275]","[0.10874021743074991, 0.7168120675578393]",829.0880153788621,None,[1 1 2 2 0 3 2 1],space,0,4.5969848870518035,0.0029740420777670806,None,829.3044923006255,None,1,833.9088935827112,None,None,834.408472870508,None,,,,,,,,,,,,,,,,,,,,,,,,,,,,,,,,,,,,,,,,,,,,,,,19_DA,19,24,F,2022-12-12_12h18.49.973,dynamic target,2022.1.3,120.11148091548746,
1,1,2,2,L,0,157,157,157,,,,,,,None,835.4409261441288,None,834.4668305085943,None,834.9413530140337,None,1,[0.00866953213699162],[0.5174134698463604],835.4409261441288,None,[0 2 3 1 2 3 3 0],space,0,1.6914171051776066,0.00273511038540164,None,835.4575647697311,None,1,837.1477925598265,None,None,837.6473772997566,None,,,,,,,,,,,,,,,,,,,,,,,,,,,,,,,,,,,,,,,,,,,,,,,19_DA,19,24,F,2022-12-12_12h18.49.973,dynamic target,2022.1.3,120.11148091548746,
1,8,2,2,L,0,158,158,158,,,,,,,None,838.6798106891292,None,837.7056852272217,838.7047820975058,838.1802500668691,None,1,[0.08317997874291905],[0.5838502703300037],838.6798106891292,None,[2 3 1 2 0 3 2 0],space,0,2.4814827424415853,0.002426263114102767,None,838.7631234433356,None,1,841.2443158311326,None,None,841.743872668973,None,,,,,,,,,,,,,,,,,,,,,,,,,,,,,,,,,,,,,,,,,,,,,,,19_DA,19,24,F,2022-12-12_12h18.49.973,dynamic target,2022.1.3,120.11148091548746,
1,7,1,2,L,0,159,159,159,,,,,,,None,842.7763201697471,None,841.7938256844191,None,842.2767492846469,None,1,[0.00854188809353218],[0.5170398384107102],842.7763201697471,None,[3 1 0 0 3 3 1 3],space,0,2.499960660983561,0.0029958506074763136,None,842.7929738688908,None,1,845.2908414436479,None,None,845.7903992436283,None,,,,,,,,,,,,,,,,,,,,,,,,,,,,,,,,,,,,,,,,,,,,,,,19_DA,19,24,F,2022-12-12_12h18.49.973,dynamic target,2022.1.3,120.11148091548746,
1,1,1,0,L,0,160,160,160,,,,,,,None,846.8228672700789,None,845.8487450153079,846.8478486205786,846.3233124206636,None,2,"[0.008654779307107674, 0.1334893712264602]","[0.03385806367077748, 0.63381714060597]",846.8228672700789,None,[2 0 2 2 0 1 2 2],space,0,4.864199033348996,0.0029169550416554557,None,846.9561061639233,None,1,851.818595043178,None,None,852.3181387317569,None,,,,,,,,,,,,,,,,,,,,,,,,,,,,,,,,,,,,,,,,,,,,,,,19_DA,19,24,F,2022-12-12_12h18.49.973,dynamic target,2022.1.3,120.11148091548746,
1,8,1,2,L,0,161,161,161,,,,,,,None,853.3506157381889,None,852.3764880312865,853.3755794494373,852.8510275345507,None,1,[0.0507202267053799],[0.558433711368707],853.3506157381889,None,[0 0 2 0 1 3 2 0],space,0,3.2111987248208607,0.0027351103872206295,None,853.4089176362377,None,1,856.6228269242984,None,None,857.1223699714488,None,,,,,,,,,,,,,,,,,,,,,,,,,,,,,,,,,,,,,,,,,,,,,,,19_DA,19,24,F,2022-12-12_12h18.49.973,dynamic target,2022.1.3,120.11148091548746,
1,7,3,2,L,0,162,162,162,,,,,,,None,858.1465007251336,None,857.1557250919323,858.1548489021643,857.6469522899915,None,2,"[0.008738485576031962, 0.5081313745849911]","[0.3919576555308595, 1.0086121243875823]",858.1465007251336,None,[3 1 2 1 0 1 0 0],space,0,4.621099669195246,0.0024961786966741784,None,858.6544217115461,None,1,863.2754750892054,None,None,863.775035775611,None,,,,,,,,,,,,,,,,,,,,,,,,,,,,,,,,,,,,,,,,,,,,,,,19_DA,19,24,F,2022-12-12_12h18.49.973,dynamic target,2022.1.3,120.11148091548746,
1,6,2,2,L,0,163,163,163,,,,,,,None,864.8074864835216,None,863.8333687187423,None,864.3079133534266,None,1,[0.008241700090366066],[0.5164718544892821],864.8074864835216,None,[1 0 0 1 2 3 3 2],space,0,4.62804312031767,0.003116118235993781,None,864.8241392205236,None,1,869.453534040229,None,None,869.9530944059194,None,,,,,,,,,,,,,,,,,,,,,,,,,,,,,,,,,,,,,,,,,,,,,,,19_DA,19,24,F,2022-12-12_12h18.49.973,dynamic target,2022.1.3,120.11148091548746,
1,5,3,2,L,0,164,164,164,,,,,,,None,870.9855380581303,None,869.9947066207478,870.9938958565708,870.48596460732,None,2,"[0.04988508829046623, 0.29954400929273106]","[0.1583206277264253, 0.7999060950351122]",870.9855380581303,None,[0 1 2 3 1 0 2 1],space,0,3.125866757301992,0.002657497676409548,None,871.2852863620355,None,1,874.4159412657791,None,None,874.9154827093631,None,,,,,,,,,,,,,,,,,,,,,,,,,,,,,,,,,,,,,,,,,,,,,,,19_DA,19,24,F,2022-12-12_12h18.49.973,dynamic target,2022.1.3,120.11148091548746,
1,4,4,2,L,0,165,165,165,,,,,,,None,875.9479728650567,None,874.9738547795641,875.9729346520216,875.4483904342651,None,2,"[0.00864355432895536, 0.983556368315476]","[0.4256422131038562, 1.4910296384350659]",875.9479728650567,None,[2 1 1 1 3 0 0 3],space,0,3.0888458153385727,0.003162621718729497,None,876.9387834560494,None,1,880.0278081208544,None,None,880.5273793908096,None,,,,,,,,,,,,,,,,,,,,,,,,,,,,,,,,,,,,,,,,,,,,,,,19_DA,19,24,F,2022-12-12_12h18.49.973,dynamic target,2022.1.3,120.11148091548746,
1,3,2,2,L,0,166,166,166,,,,,,,None,881.5598061093375,None,880.585696298258,None,881.0602800600118,None,1,[0.008703527786565246],[0.508735278441236],881.5598061093375,None,[2 1 2 3 2 0 2 1],space,0,2.4107169487342617,0.0025413993244001176,None,881.5681782757529,None,1,883.9827626019633,None,None,884.4823444554701,None,,,,,,,,,,,,,,,,,,,,,,,,,,,,,,,,,,,,,,,,,,,,,,,19_DA,19,24,F,2022-12-12_12h18.49.973,dynamic target,2022.1.3,120.11148091548746,
1,2,4,2,L,0,167,167,167,,,,,,,None,885.5147865041108,None,884.5406138972921,None,885.0152082425975,None,1,[0.008725977742869873],[0.5172871086560917],885.5147865041108,None,[3 1 3 3 2 3 3 2],space,0,0.815369734486012,0.0027941217012994457,None,885.5314292989897,None,1,886.347392565729,None,None,886.8469773056573,None,,,,,,,,,,,,,,,,,,,,,,,,,,,,,,,,,,,,,,,,,,,,,,,19_DA,19,24,F,2022-12-12_12h18.49.973,dynamic target,2022.1.3,120.11148091548746,
1,1,2,2,L,0,168,168,168,,,,,,,None,887.8794199957283,None,886.90534520658,887.9043731234233,887.3798558456165,None,1,[0.04152183771475393],[0.5425173329713289],887.8794199957283,None,[3 3 0 2 2 1 2 2],space,0,1.2247023742220335,0.0014724606371601112,None,887.9210226532887,None,1,889.1450212729378,None,None,889.6446063335812,None,,,,,,,,,,,,,,,,,,,,,,,,,,,,,,,,,,,,,,,,,,,,,,,19_DA,19,24,F,2022-12-12_12h18.49.973,dynamic target,2022.1.3,120.11148091548746,
1,8,3,2,L,0,169,169,169,,,,,,,None,890.6770400436671,None,889.7028966217931,890.7019999063505,890.1774791006919,None,1,[0.0664852282479842],[0.5666205694196833],890.6770400436671,None,[1 3 3 0 2 3 1 0],space,0,1.2347439194727485,0.002873979407013394,None,890.7436416909823,None,1,891.9759156856562,None,None,892.4755017084414,None,,,,,,,,,,,,,,,,,,,,,,,,,,,,,,,,,,,,,,,,,,,,,,,19_DA,19,24,F,2022-12-12_12h18.49.973,dynamic target,2022.1.3,120.11148091548746,
1,7,1,2,L,0,170,170,170,,,,,,,None,893.5079549820621,None,892.5254454231908,893.5245859105344,893.0083796069721,None,1,[0.04979657131480053],[0.5501272271158086],893.5079549820621,None,[3 3 1 0 3 3 0 2],space,0,3.140043584709929,0.0026334441517974483,None,893.5579135137832,None,1,896.6968784296314,None,None,897.1964602831382,None,,,,,,,,,,,,,,,,,,,,,,,,,,,,,,,,,,,,,,,,,,,,,,,19_DA,19,24,F,2022-12-12_12h18.49.973,dynamic target,2022.1.3,120.11148091548746,
1,6,3,2,L,0,171,171,171,,,,,,,None,898.2289026524941,None,897.2547948298379,None,897.7293590280569,None,1,[0.008627518645880627],[0.5171735760159208],898.2289026524941,None,[2 2 0 2 0 1 3 1],space,0,1.6365673691580014,0.0028986743600398768,None,898.2455691801842,None,1,899.8858426078386,None,None,900.3854196506387,None,,,,,,,,,,,,,,,,,,,,,,,,,,,,,,,,,,,,,,,,,,,,,,,19_DA,19,24,F,2022-12-12_12h18.49.973,dynamic target,2022.1.3,120.11148091548746,
1,5,1,2,L,0,172,172,172,,,,,,,None,901.417857530003,None,900.4437509902036,None,900.9182587428149,None,1,[0.008678832833538763],[0.5171075089983788],901.417857530003,None,[2 0 0 1 2 2 0 1],space,0,2.2235086779146513,0.002981739204187761,None,901.4345089841518,None,0,903.6659189761795,None,None,904.1655017918262,None,,,,,,,,,,,,,,,,,,,,,,,,,,,,,,,,,,,,,,,,,,,,,,,19_DA,19,24,F,2022-12-12_12h18.49.973,dynamic target,2022.1.3,120.11148091548746,
1,6,3,1,L,0,173,173,173,,,,,,,None,905.1979512168837,None,904.223826717116,905.222937057375,904.6983610889638,None,4,"[0.00809930321702268, 0.900326999666504, 1.3909544631478639, 1.8569097441159101]","[0.5170837761852454, 1.3159401753546263, 1.7654207154100732, 2.3570835709288076]",905.1979512168837,None,[0 1 3 0 1 2 2 0],space,0,1.1626134890684625,0.002452561635436723,None,907.0546973970231,None,1,908.2287034892997,None,None,908.7282683449818,None,,,,,,,,,,,,,,,,,,,,,,,,,,,,,,,,,,,,,,,,,,,,,,,19_DA,19,24,F,2022-12-12_12h18.49.973,dynamic target,2022.1.3,120.11148091548746,
1,5,3,2,L,0,174,174,174,,,,,,,None,909.7607325228673,None,908.7866006466866,None,909.2611472056524,None,1,[0.008720525611352059],[0.5169080250907427],909.7607325228673,None,[1 3 0 1 2 3 1 0],space,0,1.6890329196976381,0.0032700607989681885,None,909.7773766006012,None,1,911.4675877135869,None,None,911.9671641149604,None,,,,,,,,,,,,,,,,,,,,,,,,,,,,,,,,,,,,,,,,,,,,,,,19_DA,19,24,F,2022-12-12_12h18.49.973,dynamic target,2022.1.3,120.11148091548746,
1,2,1,0,L,0,175,175,175,,,,,,,None,912.9996388763975,None,912.0254976995202,913.0245980976542,912.5000497106194,None,2,"[0.008668890708577237, 0.3166239369147661]","[0.19223160915498738, 0.8166867967956932]",912.9996388763975,None,[0 3 3 3 1 3 0 2],space,0,1.9102907202559436,0.0030317705368361203,None,913.3160139394986,None,0,915.2310517548485,None,None,915.7306448333335,None,,,,,,,,,,,,,,,,,,,,,,,,,,,,,,,,,,,,,,,,,,,,,,,19_DA,19,24,F,2022-12-12_12h18.49.973,dynamic target,2022.1.3,120.11148091548746,
1,1,3,2,L,0,176,176,176,,,,,,,None,916.7630564141764,None,915.7805644945583,916.7797290354283,916.2634983576245,None,1,[0.03314607930769853],[0.5421818664635794],916.7630564141764,None,[2 0 0 0 2 0 1 0],space,0,0.8204392555908271,0.002475011593560339,None,916.8047020473714,None,1,917.6373113161244,None,None,918.1369005460461,None,,,,,,,,,,,,,,,,,,,,,,,,,,,,,,,,,,,,,,,,,,,,,,,19_DA,19,24,F,2022-12-12_12h18.49.973,dynamic target,2022.1.3,120.11148091548746,
1,8,3,2,L,0,177,177,177,,,,,,,None,919.1693432361153,None,918.2035242584607,919.2026512758312,918.6697685024519,None,2,"[0.008910067395845545, 0.15841844539863814]","[0.06669401285398635, 0.6585377508872625]",919.1693432361153,None,[3 3 3 3 1 1 1 2],space,0,2.137958945804712,0.0029551199677371187,None,919.3275307676668,None,1,921.4673737975645,None,None,921.9669457089464,None,,,,,,,,,,,,,,,,,,,,,,,,,,,,,,,,,,,,,,,,,,,,,,,19_DA,19,24,F,2022-12-12_12h18.49.973,dynamic target,2022.1.3,120.11148091548746,
1,1,1,1,L,0,178,178,178,,,,,,,None,922.9993976997121,None,922.0168993658208,None,922.4998332288869,None,1,[0.008659590012030094],[0.516994938496282],922.9993976997121,None,[0 0 2 2 3 3 3 0],space,0,1.3609091524413088,0.003042995516807423,None,923.0160446638693,None,1,924.381548251693,None,None,924.88111182452,None,,,,,,,,,,,,,,,,,,,,,,,,,,,,,,,,,,,,,,,,,,,,,,,19_DA,19,24,F,2022-12-12_12h18.49.973,dynamic target,2022.1.3,120.11148091548746,
1,8,1,2,L,0,179,179,179,,,,,,,None,925.9135836995338,None,924.9310975527624,925.9302297015493,925.4140038344522,None,2,"[0.008711545628102613, 0.2666824030184216]","[0.125456776455394, 0.7667273029328499]",925.9135836995338,None,[3 2 2 3 3 1 2 2],space,0,3.381231495344764,0.00301348985885852,None,926.180026529435,None,1,929.5604635082345,None,space,930.068371024674,None,4.761273034180704,,,,,,,,,,,,,,,,,,,,,,,,,,,,,,,,,,,,,,,,,,,,,,19_DA,19,24,F,2022-12-12_12h18.49.973,dynamic target,2022.1.3,120.11148091548746,
1,1,4,1,L,0,180,180,180,,,,,,,None,935.8717350545812,None,934.8976022162587,None,935.3721580759229,None,1,[0.008580694448028225],[0.516899365820791],935.8717350545812,None,[1 0 1 1 1 3 0 2],space,0,4.808302167170041,0.0031510760254604975,None,935.8883784908885,None,1,940.70092455339,None,None,941.2005076897518,None,,,,,,,,,,,,,,,,,,,,,,,,,,,,,,,,,,,,,,,,,,,,,,,19_DA,19,24,F,2022-12-12_12h18.49.973,dynamic target,2022.1.3,120.11148091548746,
1,8,1,2,L,0,181,181,181,,,,,,,None,942.232973791919,None,941.258835501465,942.2579452002956,941.7334115660888,None,2,"[0.0087243741745624, 0.7674248551811615]","[0.41690853823092766, 1.2749529673383222]",942.232973791919,None,[0 1 1 1 1 2 0 0],space,0,1.0803725599744212,0.002723885407249327,None,943.0072920668899,None,1,944.089701049952,None,None,944.5892553220825,None,,,,,,,,,,,,,,,,,,,,,,,,,,,,,,,,,,,,,,,,,,,,,,,19_DA,19,24,F,2022-12-12_12h18.49.973,dynamic target,2022.1.3,120.11148091548746,
1,7,3,2,L,0,182,182,182,,,,,,,None,945.621725593528,None,944.6392673488463,945.6383741612535,945.1221505391513,None,1,[0.041538514826243045],[0.5421536436606402],945.621725593528,None,[1 0 0 1 1 0 2 3],space,0,1.4641561860007641,0.0022970155005168635,None,945.663373792433,None,1,947.1287716730276,None,None,947.6283512815395,None,,,,,,,,,,,,,,,,,,,,,,,,,,,,,,,,,,,,,,,,,,,,,,,19_DA,19,24,F,2022-12-12_12h18.49.973,dynamic target,2022.1.3,120.11148091548746,
1,6,2,2,L,0,183,183,183,,,,,,,None,948.6607856330538,None,947.6866495875929,948.6857830192366,948.1612118615303,None,2,"[0.008593202281190315, 0.2250832733061543]","[0.08378099617584667, 0.7255803795069369]",948.6607856330538,None,[3 0 3 2 3 2 3 1],space,0,4.258104383043246,0.002488481566615519,None,948.8856325403794,None,1,953.1486155111234,None,None,953.6482069860418,None,,,,,,,,,,,,,,,,,,,,,,,,,,,,,,,,,,,,,,,,,,,,,,,19_DA,19,24,F,2022-12-12_12h18.49.973,dynamic target,2022.1.3,120.11148091548746,
1,5,3,2,L,0,184,184,184,,,,,,,None,954.6806548075292,None,953.6981558322095,None,954.1810797531525,None,1,[0.008613727955889772],[0.5174179598379851],954.6806548075292,None,[0 0 0 3 0 1 0 0],space,0,2.9100084922210954,0.002750183928583283,None,954.6972911881348,None,1,957.6114739808199,None,None,958.1110507029067,None,,,,,,,,,,,,,,,,,,,,,,,,,,,,,,,,,,,,,,,,,,,,,,,19_DA,19,24,F,2022-12-12_12h18.49.973,dynamic target,2022.1.3,120.11148091548746,
1,4,1,2,L,0,185,185,185,,,,,,,None,959.1435107115158,None,958.1610168676143,959.1601429228431,958.6439321292874,None,1,[0.04170881378922786],[0.5499303089181922],959.1435107115158,None,[2 1 3 1 2 1 2 2],space,0,4.366292331522345,0.002985267055919394,None,959.193454490407,None,1,963.564716813029,None,None,964.0642951386859,None,,,,,,,,,,,,,,,,,,,,,,,,,,,,,,,,,,,,,,,,,,,,,,,19_DA,19,24,F,2022-12-12_12h18.49.973,dynamic target,2022.1.3,120.11148091548746,
1,5,4,1,L,0,186,186,186,,,,,,,None,965.0967500158749,None,964.122599217586,None,964.5971675850833,None,1,[0.00867338070202095],[0.5171331660931173],965.0967500158749,None,[1 0 2 1 1 1 3 2],space,0,0.8933483788023295,0.0029637792376888683,None,965.1133915278988,None,1,966.0042940354306,None,None,966.503880378929,None,,,,,,,,,,,,,,,,,,,,,,,,,,,,,,,,,,,,,,,,,,,,,,,19_DA,19,24,F,2022-12-12_12h18.49.973,dynamic target,2022.1.3,120.11148091548746,
1,4,2,2,L,0,187,187,187,,,,,,,None,967.5363285211315,None,966.5622049835056,967.5613089094895,967.036756032463,None,1,[0.0419131084017863],[0.541916636251699],967.5363285211315,None,[3 1 0 3 2 1 1 2],space,0,1.085918020175086,0.00272164041234646,None,967.5779468936635,None,1,968.6686848109348,None,None,969.16826474016,None,,,,,,,,,,,,,,,,,,,,,,,,,,,,,,,,,,,,,,,,,,,,,,,19_DA,19,24,F,2022-12-12_12h18.49.973,dynamic target,2022.1.3,120.11148091548746,
1,3,2,2,L,0,188,188,188,,,,,,,None,970.2007077509443,None,969.2265405962571,None,969.7011294894291,None,1,[0.00779302165392437],[0.5165080951337586],970.2007077509443,None,[3 3 2 0 1 1 3 1],space,0,3.6124561148662906,0.002256284866234637,None,970.2173781271977,None,1,973.8309328983596,None,None,974.3304967918999,None,,,,,,,,,,,,,,,,,,,,,,,,,,,,,,,,,,,,,,,,,,,,,,,19_DA,19,24,F,2022-12-12_12h18.49.973,dynamic target,2022.1.3,120.11148091548746,
1,2,4,2,L,0,189,189,189,,,,,,,None,975.3629683462004,None,974.3888236414732,975.3879487345603,974.8550704511727,None,1,[0.04975808567178319],[0.5501762963085639],975.3629683462004,None,[1 3 1 0 2 2 0 1],space,0,3.1620073402173148,0.002776482449917239,None,975.404598585139,None,1,978.56856345288,None,None,979.0681327985536,None,,,,,,,,,,,,,,,,,,,,,,,,,,,,,,,,,,,,,,,,,,,,,,,19_DA,19,24,F,2022-12-12_12h18.49.973,dynamic target,2022.1.3,120.11148091548746,
1,2,1,0,L,0,190,190,190,,,,,,,None,980.1005889585977,None,979.1264112203608,980.1255549148409,979.6009901714078,None,1,[0.1502469816023222],[0.6583559062310087],980.1005889585977,None,[0 3 1 1 3 0 2 1],space,0,3.0113286780033377,0.0027941217012994457,None,980.258774886579,None,1,983.2728692905748,None,None,983.772442805525,None,,,,,,,,,,,,,,,,,,,,,,,,,,,,,,,,,,,,,,,,,,,,,,,19_DA,19,24,F,2022-12-12_12h18.49.973,dynamic target,2022.1.3,120.11148091548746,
1,1,2,2,L,0,191,191,191,,,,,,,None,984.8048883820175,None,983.8307699758116,None,984.3053107619326,None,1,[0.008648685747175477],[0.5172502265850198],984.8048883820175,None,[3 2 3 2 0 1 1 3],space,0,1.1686637525981496,0.0026113149051525397,None,984.8215731903892,None,1,985.9955391934564,None,None,986.4951184812531,None,,,,,,,,,,,,,,,,,,,,,,,,,,,,,,,,,,,,,,,,,,,,,,,19_DA,19,24,F,2022-12-12_12h18.49.973,dynamic target,2022.1.3,120.11148091548746,
1,8,2,2,L,0,192,192,192,,,,,,,None,987.5275624541773,None,986.5450612338627,None,987.0279970212105,None,1,[0.008586467294662725],[0.5171886495591025],987.5275624541773,None,[3 1 3 1 2 0 0 0],space,0,1.1660271654527605,0.0029317078697204124,None,987.5442475832624,None,1,988.7098856142584,None,None,989.2094620156337,None,,,,,,,,,,,,,,,,,,,,,,,,,,,,,,,,,,,,,,,,,,,,,,,19_DA,19,24,F,2022-12-12_12h18.49.973,dynamic target,2022.1.3,120.11148091548746,
1,7,3,2,L,0,193,193,193,,,,,,,None,990.2419245899509,None,989.2677474931406,990.2669069025924,989.7423200299163,None,1,[0.03422688440150523],[0.5416312010802358],990.2419245899509,None,[3 1 3 1 1 2 3 3],space,0,2.378472074860838,0.0029538371145463316,None,990.2835323789313,None,1,992.6648603003287,None,None,993.1644004610577,None,,,,,,,,,,,,,,,,,,,,,,,,,,,,,,,,,,,,,,,,,,,,,,,19_DA,19,24,F,2022-12-12_12h18.49.973,dynamic target,2022.1.3,120.11148091548746,
1,6,2,2,L,0,194,194,194,,,,,,,None,994.1968675253665,None,993.2144490491792,994.2135090373904,993.6972866981432,None,1,[0.03324838697153609],[0.5421879600253305],994.1968675253665,None,[1 0 2 1 3 0 2 2],space,0,2.5032207155163633,0.0025805263940128498,None,994.2385141207014,None,1,996.7446920282764,None,None,997.2442504696852,None,,,,,,,,,,,,,,,,,,,,,,,,,,,,,,,,,,,,,,,,,,,,,,,19_DA,19,24,F,2022-12-12_12h18.49.973,dynamic target,2022.1.3,120.11148091548746,
1,5,1,2,L,0,195,195,195,,,,,,,None,998.2767130440025,None,997.3025920720847,998.3016825280956,997.7771469696072,None,2,"[0.00864451647066744, 0.11680007286668115]","[0.017226173058588756, 0.62541893224261]",998.2767130440025,None,[0 1 1 0 1 1 1 0],space,0,1.6202228380007,0.0030561447783838958,None,998.4016130615128,None,1,1000.0252058500737,None,None,1000.5248156056701,None,,,,,,,,,,,,,,,,,,,,,,,,,,,,,,,,,,,,,,,,,,,,,,,19_DA,19,24,F,2022-12-12_12h18.49.973,dynamic target,2022.1.3,120.11148091548746,
1,4,3,2,L,0,196,196,196,,,,,,,None,1001.5572467500479,None,1000.5830975553272,None,1001.0576912592041,None,1,[0.008661193580337567],[0.5169663949800452],1001.5572467500479,None,[3 0 0 2 0 1 1 0],space,0,1.0875796377404185,0.0030195834187907167,None,1001.5738949970582,None,0,1002.6646300279081,None,None,1003.1641987321533,None,,,,,,,,,,,,,,,,,,,,,,,,,,,,,,,,,,,,,,,,,,,,,,,19_DA,19,24,F,2022-12-12_12h18.49.973,dynamic target,2022.1.3,120.11148091548746,
1,3,4,2,L,0,197,197,197,,,,,,,None,1004.1966529679157,None,1003.22252237459,1004.2216378462654,1003.6970724614057,None,1,[0.040697603562875884],[0.5410228072323662],1004.1966529679157,None,[0 1 1 0 1 1 2 0],space,0,3.2221129319877946,0.002478860156770679,None,1004.238298921824,None,1,1007.4688381762171,None,None,1007.9684225954321,None,,,,,,,,,,,,,,,,,,,,,,,,,,,,,,,,,,,,,,,,,,,,,,,19_DA,19,24,F,2022-12-12_12h18.49.973,dynamic target,2022.1.3,120.11148091548746,
1,1,3,0,L,0,198,198,198,,,,,,,None,1009.0008768311945,None,1008.0183717623149,1009.0175164189368,1008.4929629004819,None,1,[0.08312289170862641],[0.5920323176760576],1009.0008768311945,None,[0 2 3 0 1 1 3 2],space,0,2.7603041581605794,0.0026677605128497817,None,1009.0841392333532,None,1,1011.8484669565478,None,None,1012.3480122486968,None,,,,,,,,,,,,,,,,,,,,,,,,,,,,,,,,,,,,,,,,,,,,,,,19_DA,19,24,F,2022-12-12_12h18.49.973,dynamic target,2022.1.3,120.11148091548746,
1,8,2,2,L,0,199,199,199,,,,,,,None,1013.3804741815857,None,1012.3979934869458,None,1012.8808920715092,None,1,[0.00869262352171063],[0.5172887122262182],1013.3804741815857,None,[3 1 2 3 3 1 0 0],space,0,1.1037009521769505,0.0028149680911155883,None,1013.3971326914343,None,1,1014.5045060271714,None,None,1015.0040766557,None,,,,,,,,,,,,,,,,,,,,,,,,,,,,,,,,,,,,,,,,,,,,,,,19_DA,19,24,F,2022-12-12_12h18.49.973,dynamic target,2022.1.3,120.11148091548746,
1,7,3,2,L,0,200,200,200,,,,,,,None,1016.036508120791,None,1015.0624025431298,1016.061493319854,1015.5369484606708,None,1,[0.10808564081526129],[0.6085099450119742],1016.036508120791,None,[2 0 2 3 3 1 3 0],space,0,1.45915914618854,0.002569622127339244,None,1016.1447627777143,None,1,1017.6018894525605,None,None,1018.1014267268662,None,,,,,,,,,,,,,,,,,,,,,,,,,,,,,,,,,,,,,,,,,,,,,,,19_DA,19,24,F,2022-12-12_12h18.49.973,dynamic target,2022.1.3,120.11148091548746,
1,6,3,2,L,0,201,201,201,,,,,,,None,1019.1338700583638,None,1018.1597657635575,1019.1588465981567,1018.6343068703918,None,4,"[0.008576204456403502, 0.17588258800424228, 1.0584006778590265, 1.1250655057683616]","[0.042089500924703316, 0.6090445747104241, 1.0675246612772753, 1.6327401840771927]",1019.1338700583638,None,[3 3 0 1 0 1 3 3],space,0,2.457790019498134,0.0028435116091714008,None,1020.2662318003004,None,0,1022.7224572697123,None,None,1023.2220343125142,None,,,,,,,,,,,,,,,,,,,,,,,,,,,,,,,,,,,,,,,,,,,,,,,19_DA,19,24,F,2022-12-12_12h18.49.973,dynamic target,2022.1.3,120.11148091548746,
1,5,4,2,L,0,202,202,202,,,,,,,None,1024.2545093946646,None,1023.2803637277957,1024.2794868966012,1023.7549298502963,None,3,"[0.008685247106768657, 0.742630801469204, 0.8747132017924741]","[0.5175202675000037, 0.750572313558223, 1.37506823183503]",1024.2545093946646,None,[0 3 1 3 2 0 2 3],space,0,3.3710988674120017,0.0026667983729566913,None,1025.1287553166312,None,1,1028.5008864526044,None,None,1029.0004339897482,None,,,,,,,,,,,,,,,,,,,,,,,,,,,,,,,,,,,,,,,,,,,,,,,19_DA,19,24,F,2022-12-12_12h18.49.973,dynamic target,2022.1.3,120.11148091548746,
1,4,4,2,L,0,203,203,203,,,,,,,None,1030.0329042611938,None,1029.0504017580242,1030.0495342275244,1029.5333237546838,None,1,[0.10895766130488482],[0.6163741651016608],1030.0329042611938,None,[1 3 2 1 0 2 3 0],space,0,3.966208112109598,0.002992643470861367,None,1030.149439424562,None,1,1034.1127334234316,None,None,1034.6123072590967,None,,,,,,,,,,,,,,,,,,,,,,,,,,,,,,,,,,,,,,,,,,,,,,,19_DA,19,24,F,2022-12-12_12h18.49.973,dynamic target,2022.1.3,120.11148091548746,
1,3,1,2,L,0,204,204,204,,,,,,,None,1035.6447791341106,None,1034.6622731030911,None,1035.1451922133274,None,1,[0.008724694889679085],[0.5172511887267319],1035.6447791341106,None,[1 0 0 1 1 0 3 3],space,0,1.7824234597992472,0.002921445033280179,None,1035.6614020447414,None,1,1037.4432253404848,None,None,1037.9427927618767,None,,,,,,,,,,,,,,,,,,,,,,,,,,,,,,,,,,,,,,,,,,,,,,,19_DA,19,24,F,2022-12-12_12h18.49.973,dynamic target,2022.1.3,120.11148091548746,
1,2,3,2,L,0,205,205,205,,,,,,,None,1038.975242828361,None,1037.9927454566096,1038.9919006967812,1038.4756706604057,None,1,[0.12479835127669503],[0.6248695497124572],1038.975242828361,None,[2 0 0 0 0 1 0 0],space,0,4.568008085556357,0.003148510317259934,None,1039.1001393180213,None,1,1043.6712280703996,None,None,1044.1708054339147,None,,,,,,,,,,,,,,,,,,,,,,,,,,,,,,,,,,,,,,,,,,,,,,,19_DA,19,24,F,2022-12-12_12h18.49.973,dynamic target,2022.1.3,120.11148091548746,
1,1,4,2,L,0,206,206,206,,,,,,,None,1045.2032561418273,None,1044.2291447913212,1045.228237171612,1044.703693915997,None,2,"[0.008704489926458336, 0.16672813678815146]","[0.025112522393101244, 0.6672618043485272]",1045.2032561418273,None,[0 2 3 0 0 2 1 3],space,0,0.9536701315937535,0.0026879654742515413,None,1045.3697796632878,None,1,1046.3272911945496,None,None,1046.826876255193,None,,,,,,,,,,,,,,,,,,,,,,,,,,,,,,,,,,,,,,,,,,,,,,,19_DA,19,24,F,2022-12-12_12h18.49.973,dynamic target,2022.1.3,120.11148091548746,
1,2,3,1,L,0,207,207,207,,,,,,,None,1047.8593231145405,None,1046.8851979733463,1047.8842986921936,1047.3597483808771,None,2,"[0.008650930743897334, 0.1750961980669672]","[0.03386993007734418, 0.6752976062562084]",1047.8593231145405,None,[3 2 2 1 2 0 0 2],space,0,1.0411576157421223,0.0028755829771398567,None,1048.0341714009337,None,1,1049.0749344300875,None,None,1049.5745326399924,None,,,,,,,,,,,,,,,,,,,,,,,,,,,,,,,,,,,,,,,,,,,,,,,19_DA,19,24,F,2022-12-12_12h18.49.973,dynamic target,2022.1.3,120.11148091548746,
1,1,3,2,L,0,208,208,208,,,,,,,None,1050.60697949934,None,1049.6244657711904,None,1050.1073762221586,None,1,[0.0086830021100468],[0.5172880707978038],1050.60697949934,None,[1 1 3 3 1 3 2 2],space,0,1.2191354262031382,0.0028326073443167843,None,1050.623613634949,None,1,1051.8475779382334,None,None,1052.3471546603218,None,,,,,,,,,,,,,,,,,,,,,,,,,,,,,,,,,,,,,,,,,,,,,,,19_DA,19,24,F,2022-12-12_12h18.49.973,dynamic target,2022.1.3,120.11148091548746,
