tar_letter,tar_pos,tar_ori,tar_pos_type,block,trials.thisRepN,trials.thisTrialN,trials.thisN,trials.thisIndex,instructions_key.keys,instructions_key.rt,instructions_key.started,instructions_key.stopped,instruction_text.started,instruction_text.stopped,fix_key.keys,fix_key.started,fix_key.stopped,fixcross.started,fixcross.stopped,roi.started,roi.stopped,roi.numLooks,roi.timesOn,roi.timesOff,RedFixCross.started,RedFixCross.stopped,distori,search_resp.keys,search_resp.corr,search_resp.rt,search_resp.started,search_resp.stopped,fixcross_shape.started,fixcross_shape.stopped,correct,feedback_text.started,feedback_text.stopped,break_key.keys,break_key.started,break_key.stopped,break_key.rt,text_q1.started,text_q1.stopped,key_resp1.keys,key_resp1.rt,key_resp1.started,key_resp1.stopped,text_q2.started,text_q2.stopped,key_resp_2.keys,key_resp_2.rt,key_resp_2.started,key_resp_2.stopped,image.started,image.stopped,text_q1_2.started,text_q1_2.stopped,slider.response,slider.rt,slider.started,slider.stopped,mouse.x,mouse.y,mouse.leftButton,mouse.midButton,mouse.rightButton,mouse.time,mouse.started,mouse.stopped,key_resp_3.keys,key_resp_3.rt,key_resp_3.started,key_resp_3.stopped,text_q4.started,text_q4.stopped,key_resp1_3.keys,key_resp1_3.rt,key_resp1_3.started,key_resp1_3.stopped,finish_text.started,finish_text.stopped,key_resp.keys,key_resp.rt,key_resp.started,key_resp.stopped,participant,group,age,gender,date,expName,psychopyVersion,frameRate,
,,,,,,,,,space,3.6140212672835332,37.39072322858556,None,,,,,,,,,,,,,,,,,,,,,,,,,,,,,,,,,,,,,,,,,,,,,,,,,,,,,,,,,,,,,,,,,,,,,,,,,,20_NK,20,20,M,2022-12-12_15h17.40.434,dynamic target,2022.1.3,120.13137971723633,
0,8,3,0,T,0,0,0,0,,,,,37.39072322858556,None,None,206.84596186201088,None,205.8732141860637,206.8792609217453,206.34639129762581,None,1,[0.049806834151240764],[0.5500948350345425],206.84596186201088,None,[1 0 3 3 0 1 2 3],space,0,2.315497127481649,0.007148066455556545,None,206.90423842367818,None,1,209.2272679748785,None,None,209.72683132320634,None,,,,,,,,,,,,,,,,,,,,,,,,,,,,,,,,,,,,,,,,,,,,,,20_NK,20,20,M,2022-12-12_15h17.40.434,dynamic target,2022.1.3,120.13137971723633,
0,7,3,2,T,0,1,1,1,,,,,,,None,210.75927712419798,None,209.77679001528668,210.77593338905353,210.25971682264935,None,1,[0.2167306062838179],[0.7171744740153372],210.75927712419798,None,[3 3 1 2 1 1 0 0],space,0,1.4076974991257885,0.0025395712546014693,None,210.97576270523132,None,0,212.39121905193315,None,None,212.89078913524753,None,,,,,,,,,,,,,,,,,,,,,,,,,,,,,,,,,,,,,,,,,,,,,,20_NK,20,20,M,2022-12-12_15h17.40.434,dynamic target,2022.1.3,120.13137971723633,
0,3,2,0,T,0,2,2,2,,,,,,,None,213.92326604546543,None,212.9491437906945,None,213.42367559683044,None,1,[0.008796855465334374],[0.5170433662606229],213.92326604546543,None,[0 0 3 2 3 1 2 0],space,0,2.235025896461593,0.0026761952831293456,None,213.93990274678436,None,1,216.17966091584094,None,None,216.67922105703218,None,,,,,,,,,,,,,,,,,,,,,,,,,,,,,,,,,,,,,,,,,,,,,,20_NK,20,20,M,2022-12-12_15h17.40.434,dynamic target,2022.1.3,120.13137971723633,
0,2,2,2,T,0,3,3,3,,,,,,,None,217.71168353513713,None,216.73755390394945,217.7366562263669,217.21209853863547,None,2,"[0.008661514293635264, 0.6750413560293964]","[0.4831724740433856, 1.1751494365380495]",217.71168353513713,None,[2 1 3 2 0 3 3 1],space,0,2.620249526902626,0.0026328989333705977,None,218.38611745946037,None,1,221.00886099820127,None,None,221.50843044008906,None,,,,,,,,,,,,,,,,,,,,,,,,,,,,,,,,,,,,,,,,,,,,,,20_NK,20,20,M,2022-12-12_15h17.40.434,dynamic target,2022.1.3,120.13137971723633,
0,1,4,2,T,0,4,4,4,,,,,,,None,222.54088586249054,None,221.5667780398362,222.56585951586385,222.04130728026576,None,2,"[0.008643233613838675, 0.4256127074440883]","[0.15011452685575932, 0.9335994401626522]",222.54088586249054,None,[3 0 0 0 0 0 0 2],space,0,2.4012678313156357,0.0024629206891404465,None,222.9738486860042,None,1,225.38012332082144,None,None,225.87969725270267,None,,,,,,,,,,,,,,,,,,,,,,,,,,,,,,,,,,,,,,,,,,,,,,20_NK,20,20,M,2022-12-12_15h17.40.434,dynamic target,2022.1.3,120.13137971723633,
0,8,3,2,T,0,5,5,5,,,,,,,None,226.91214786440105,None,225.9380426074531,None,226.41257922429577,None,1,[0.008607955111074261],[0.5170719097804977],226.91214786440105,None,[3 1 2 2 0 3 3 0],space,0,2.158166222165164,0.0030597688419220503,None,226.92880252568284,None,1,229.0852931611662,None,None,229.584865168764,None,,,,,,,,,,,,,,,,,,,,,,,,,,,,,,,,,,,,,,,,,,,,,,20_NK,20,20,M,2022-12-12_15h17.40.434,dynamic target,2022.1.3,120.13137971723633,
0,1,3,1,T,0,6,6,6,,,,,,,None,230.60899293980765,None,229.62655842793902,230.62565786392952,230.1094287896958,None,2,"[0.22503452482851571, 0.7087615128220932]","[0.49149082470466965, 1.2165433094960463]",230.60899293980765,None,[0 1 0 1 2 2 3 1],space,0,1.761094466328359,0.00296002688628505,None,231.32504748165957,None,1,233.09020681542097,None,None,233.58979165156524,None,,,,,,,,,,,,,,,,,,,,,,,,,,,,,,,,,,,,,,,,,,,,,,20_NK,20,20,M,2022-12-12_15h17.40.434,dynamic target,2022.1.3,120.13137971723633,
0,8,4,2,T,0,7,7,7,,,,,,,None,234.62223649041698,None,233.6481206499193,234.6472101437903,234.1226675295984,None,2,"[0.20009069782827282, 0.7584766228610533]","[0.3999360496927693, 1.2667022872665257]",234.62223649041698,None,[1 1 0 2 1 0 0 3],space,0,2.385573707495496,0.0027538079921214376,None,235.38824314971498,None,1,237.7778557468373,None,None,238.27743448942164,None,,,,,,,,,,,,,,,,,,,,,,,,,,,,,,,,,,,,,,,,,,,,,,20_NK,20,20,M,2022-12-12_15h17.40.434,dynamic target,2022.1.3,120.13137971723633,
0,7,1,2,T,0,8,8,8,,,,,,,None,239.30991621034264,None,238.33578369273528,None,238.81031998886465,None,1,[0.00872437417274341],[0.5177261656826886],239.30991621034264,None,[3 2 2 2 3 1 1 3],space,0,1.4550511943562014,0.0022823588878964074,None,239.32654745953187,None,1,240.78363596944837,None,None,241.28320797704617,None,,,,,,,,,,,,,,,,,,,,,,,,,,,,,,,,,,,,,,,,,,,,,,20_NK,20,20,M,2022-12-12_15h17.40.434,dynamic target,2022.1.3,120.13137971723633,
0,6,3,2,T,0,9,9,9,,,,,,,None,242.31567141729101,None,241.34149977261404,242.34064025995758,241.8160931557759,None,2,"[0.008731109162908979, 0.7264427785848966]","[0.4341459362694877, 1.2332932227436686]",242.31567141729101,None,[2 2 3 3 0 0 3 1],space,0,3.1259130097350862,0.0026739502864074893,None,243.04838478970487,None,1,246.17902782704186,None,None,246.67861811531947,None,,,,,,,,,,,,,,,,,,,,,,,,,,,,,,,,,,,,,,,,,,,,,,20_NK,20,20,M,2022-12-12_15h17.40.434,dynamic target,2022.1.3,120.13137971723633,
0,5,4,2,T,0,10,10,10,,,,,,,None,247.7027343406735,None,246.71190514828777,247.71105269133113,247.20315864486838,None,2,"[0.0087060934965848, 0.8009715058724396]","[0.275176825485687, 1.3082911541423528]",247.7027343406735,None,[2 0 3 1 1 0 3 0],space,0,2.446265884580498,0.0024061543663265184,None,248.51037284248014,None,1,250.95827964051932,None,None,251.4578516481135,None,,,,,,,,,,,,,,,,,,,,,,,,,,,,,,,,,,,,,,,,,,,,,,20_NK,20,20,M,2022-12-12_15h17.40.434,dynamic target,2022.1.3,120.13137971723633,
0,7,2,0,T,0,11,11,11,,,,,,,None,252.49030642909202,None,251.5078257344503,None,251.9907320161401,None,1,[0.008619821514002979],[0.5171995538221381],252.49030642909202,None,[2 3 0 3 1 1 0 3],space,0,1.6977467799915757,0.0026774781363201328,None,252.5069578832372,None,1,254.20550723113047,None,None,254.7050824458649,None,,,,,,,,,,,,,,,,,,,,,,,,,,,,,,,,,,,,,,,,,,,,,,20_NK,20,20,M,2022-12-12_15h17.40.434,dynamic target,2022.1.3,120.13137971723633,
0,6,4,2,T,0,12,12,12,,,,,,,None,255.73753401970316,None,254.755040496515,255.75418258742866,255.23796056889478,None,4,"[0.008648044320580084, 0.5423326018935768, 1.2495591790502658, 1.9080927606592013]","[0.4419437686301535, 0.9416628234466771, 1.4833892764909251, 2.4157902096376347]",255.73753401970316,None,[0 3 3 3 3 3 0 0],space,0,2.664446758117265,0.0024930677718657535,None,257.6525708729132,None,1,260.31697030768555,None,None,260.8165272417402,None,,,,,,,,,,,,,,,,,,,,,,,,,,,,,,,,,,,,,,,,,,,,,,20_NK,20,20,M,2022-12-12_15h17.40.434,dynamic target,2022.1.3,120.13137971723633,
0,2,1,0,T,0,13,13,13,,,,,,,None,261.84065276779074,None,260.8498319139617,261.84897945700504,261.34107899626906,None,1,[0.4087762015078624],[0.91722315835068],261.84065276779074,None,[2 2 1 2 2 0 1 2],space,0,3.4834590497885074,0.002198331905674422,None,262.2569673442922,None,1,265.7456503207468,None,None,266.2452277804743,None,,,,,,,,,,,,,,,,,,,,,,,,,,,,,,,,,,,,,,,,,,,,,,20_NK,20,20,M,2022-12-12_15h17.40.434,dynamic target,2022.1.3,120.13137971723633,
0,1,3,2,T,0,14,14,14,,,,,,,None,267.2776806371694,None,266.3035680038083,None,266.77810301708087,None,1,[0.008705131356691709],[0.5171854424224875],267.2776806371694,None,[1 0 3 2 0 1 0 3],space,0,1.9982301596464822,0.0027858793655468617,None,267.2943542205612,None,1,269.2926242909816,None,None,269.7921966192927,None,,,,,,,,,,,,,,,,,,,,,,,,,,,,,,,,,,,,,,,,,,,,,,20_NK,20,20,M,2022-12-12_15h17.40.434,dynamic target,2022.1.3,120.13137971723633,
0,8,4,2,T,0,15,15,15,,,,,,,None,270.8246514002676,None,269.84215819779274,270.8413041372696,270.3250866087292,None,2,"[0.008621104370831745, 0.46648991066831513]","[0.20843374344258336, 0.966661171773012]",270.8246514002676,None,[1 0 0 2 0 1 2 2],space,0,1.680860884142021,0.002628408943564864,None,271.2909161699354,None,1,272.97282176080626,None,None,273.47238735413083,None,,,,,,,,,,,,,,,,,,,,,,,,,,,,,,,,,,,,,,,,,,,,,,20_NK,20,20,M,2022-12-12_15h17.40.434,dynamic target,2022.1.3,120.13137971723633,
0,7,2,2,T,0,16,16,16,,,,,,,None,274.504839890109,None,273.53073270888126,274.5298177127588,274.00527285357384,None,2,"[0.33390944200073136, 0.9170159773129853]","[0.6667913173805573, 1.4248073954004212]",274.504839890109,None,[2 0 2 1 1 0 0 1],space,0,1.4626100950263208,0.0027348858820914757,None,275.42905332377995,None,1,276.8944646743512,None,None,277.3940370026623,None,,,,,,,,,,,,,,,,,,,,,,,,,,,,,,,,,,,,,,,,,,,,,,20_NK,20,20,M,2022-12-12_15h17.40.434,dynamic target,2022.1.3,120.13137971723633,
0,6,2,2,T,0,17,17,17,,,,,,,None,278.41816220799956,None,277.4356876069178,278.4348236042715,277.91858811576094,None,2,"[0.05012081284439773, 0.6094056983129121]","[0.29992918642165023, 1.1164992434387386]",278.41816220799956,None,[0 1 1 1 3 0 3 3],space,0,2.5137664923349803,0.0027403380154282786,None,279.0343170049455,None,1,281.5488305817162,None,None,282.0484067585905,None,,,,,,,,,,,,,,,,,,,,,,,,,,,,,,,,,,,,,,,,,,,,,,20_NK,20,20,M,2022-12-12_15h17.40.434,dynamic target,2022.1.3,120.13137971723633,
0,5,2,2,T,0,18,18,18,,,,,,,None,283.0808493524455,None,282.10673511551795,None,282.58127910877374,None,1,[0.00866183500693296],[0.5173647213669028],283.0808493524455,None,[0 0 0 1 2 0 1 3],space,0,1.9376348380865238,0.0025026891817105934,None,283.0975008065943,None,1,285.0375084267507,None,None,285.53708235863195,None,,,,,,,,,,,,,,,,,,,,,,,,,,,,,,,,,,,,,,,,,,,,,,20_NK,20,20,M,2022-12-12_15h17.40.434,dynamic target,2022.1.3,120.13137971723633,
0,4,2,2,T,0,19,19,19,,,,,,,None,286.5695352153234,None,285.58704137142195,None,286.0699736309216,None,1,[0.008706734923180193],[0.517336177847028],286.5695352153234,None,[0 2 3 2 3 3 0 1],space,0,2.9935435706720455,0.002666573869646527,None,286.5861873108988,None,1,289.58362897789266,None,None,290.0832006647735,None,,,,,,,,,,,,,,,,,,,,,,,,,,,,,,,,,,,,,,,,,,,,,,20_NK,20,20,M,2022-12-12_15h17.40.434,dynamic target,2022.1.3,120.13137971723633,
0,3,3,2,T,0,20,20,20,,,,,,,None,291.11565352146863,None,290.14153736025764,None,290.6160787878034,None,1,[0.00861565224113292],[0.5171854424224875],291.11565352146863,None,[3 0 3 2 0 1 0 2],space,0,1.8709312038263306,0.002892035587137798,None,291.13230593775734,None,1,293.0057067791822,None,None,293.5052768624966,None,,,,,,,,,,,,,,,,,,,,,,,,,,,,,,,,,,,,,,,,,,,,,,20_NK,20,20,M,2022-12-12_15h17.40.434,dynamic target,2022.1.3,120.13137971723633,
0,2,3,2,T,0,21,21,21,,,,,,,None,294.5377335677549,None,293.5635834108907,None,294.0381556269531,None,1,[0.008677549980347976],[0.5173281600073096],294.5377335677549,None,[1 0 3 0 2 2 3 3],space,0,2.000520696732565,0.0027711265320249368,None,294.5543808526236,None,1,296.55267722156714,None,None,297.05225339844145,None,,,,,,,,,,,,,,,,,,,,,,,,,,,,,,,,,,,,,,,,,,,,,,20_NK,20,20,M,2022-12-12_15h17.40.434,dynamic target,2022.1.3,120.13137971723633,
0,1,3,2,T,0,22,22,22,,,,,,,None,298.0846998408633,None,297.1105833589354,None,297.58512959719155,None,1,[0.008715394189493963],[0.5171896116989956],298.0846998408633,None,[3 2 3 3 1 0 0 3],space,0,1.6058959862566553,0.0028282135681365617,None,298.1013541814318,None,1,299.70831475866726,None,None,300.20788772840496,None,,,,,,,,,,,,,,,,,,,,,,,,,,,,,,,,,,,,,,,,,,,,,,20_NK,20,20,M,2022-12-12_15h17.40.434,dynamic target,2022.1.3,120.13137971723633,
0,8,1,2,T,0,23,23,23,,,,,,,None,301.2403380193864,None,300.2578377612117,None,300.74076937928476,None,1,[0.008644516467029462],[0.5172720351147291],301.2403380193864,None,[2 1 2 3 1 0 1 0],space,0,2.081224765883235,0.002556248364271596,None,301.2569894735352,None,1,303.3385469617824,None,None,303.8381176865234,None,,,,,,,,,,,,,,,,,,,,,,,,,,,,,,,,,,,,,,,,,,,,,,20_NK,20,20,M,2022-12-12_15h17.40.434,dynamic target,2022.1.3,120.13137971723633,
0,7,3,2,T,0,24,24,24,,,,,,,None,304.8705775989183,None,303.8880850378737,None,304.37100446882323,None,1,[0.008681719256856013],[0.5168868579858099],304.8705775989183,None,[1 2 2 0 3 1 1 0],space,0,1.363904046429525,0.0031579072237946093,None,304.8872252045039,None,1,306.2527271887593,None,None,306.7523174770333,None,,,,,,,,,,,,,,,,,,,,,,,,,,,,,,,,,,,,,,,,,,,,,,20_NK,20,20,M,2022-12-12_15h17.40.434,dynamic target,2022.1.3,120.13137971723633,
0,6,2,2,T,0,25,25,25,,,,,,,None,307.7847510909087,None,306.80225981271724,307.8014079971872,307.28517667795677,None,1,[0.7586610332255077],[1.2662350074388087],307.7847510909087,None,[0 3 1 3 0 0 2 2],space,0,2.4041292387482827,0.0030636174014944118,None,308.55076673018993,None,1,310.9570394407274,None,None,311.45662684258167,None,,,,,,,,,,,,,,,,,,,,,,,,,,,,,,,,,,,,,,,,,,,,,,20_NK,20,20,M,2022-12-12_15h17.40.434,dynamic target,2022.1.3,120.13137971723633,
0,5,2,2,T,0,26,26,26,,,,,,,None,312.48906398430336,None,311.5065778375283,312.5057436612551,311.98949245777476,None,2,"[0.8748908771704009, 0.916659343703941]","[0.9086588202990242, 1.424950433702179]",312.48906398430336,None,[1 3 3 0 0 3 2 0],space,0,1.7007823349485989,0.002807367181958398,None,313.41328800152405,None,1,315.11182420015757,None,None,315.61139620775174,None,,,,,,,,,,,,,,,,,,,,,,,,,,,,,,,,,,,,,,,,,,,,,,20_NK,20,20,M,2022-12-12_15h17.40.434,dynamic target,2022.1.3,120.13137971723633,
0,4,3,2,T,0,27,27,27,,,,,,,None,316.6438376791095,None,315.6697406003623,None,316.1359482829939,None,1,[0.008614369384304155],[0.5165093779869494],316.6438376791095,None,[3 0 1 2 2 0 3 0],space,0,1.6927632101542258,0.0017727448503137566,None,316.65217767794456,None,1,318.3507289501176,None,None,318.850301599142,None,,,,,,,,,,,,,,,,,,,,,,,,,,,,,,,,,,,,,,,,,,,,,,20_NK,20,20,M,2022-12-12_15h17.40.434,dynamic target,2022.1.3,120.13137971723633,
0,3,2,2,T,0,28,28,28,,,,,,,None,319.8827485226331,None,318.90864278461595,None,319.37484886367747,None,1,[0.008091926803899696],[0.5159407526371069],319.8827485226331,None,[1 3 1 3 1 3 2 1],space,0,2.3907747212069808,0.0024962749084807,None,319.8910801829079,None,0,322.28904320205766,None,None,322.78860238110536,None,,,,,,,,,,,,,,,,,,,,,,,,,,,,,,,,,,,,,,,,,,,,,,20_NK,20,20,M,2022-12-12_15h17.40.434,dynamic target,2022.1.3,120.13137971723633,
0,4,2,1,T,0,29,29,29,,,,,,,None,323.82105170995055,None,322.846948377286,323.8460388332933,323.32147922128206,None,2,"[0.008616614377388032, 0.4339179088419769]","[0.35823365017495234, 0.9417404361556692]",323.82105170995055,None,[1 0 0 3 0 3 3 0],space,0,1.7316109372222854,0.0028057636081939563,None,324.262342826245,None,1,325.994194761719,None,None,326.49376869359656,None,,,,,,,,,,,,,,,,,,,,,,,,,,,,,,,,,,,,,,,,,,,,,,20_NK,20,20,M,2022-12-12_15h17.40.434,dynamic target,2022.1.3,120.13137971723633,
0,3,2,2,T,0,30,30,30,,,,,,,None,327.52622090886507,None,326.5437273856769,327.5428765322904,327.02666349373976,None,3,"[0.008608596537669655, 0.44984968149947235, 0.6587795689993072]","[0.36650870449011563, 0.4831548347901844, 1.1665812499231833]",327.52622090886507,None,[0 0 0 0 3 3 3 0],space,0,1.8169217376380402,0.002757015132374363,None,328.19231788113393,None,1,330.0074421608915,None,None,330.50700679207256,None,,,,,,,,,,,,,,,,,,,,,,,,,,,,,,,,,,,,,,,,,,,,,,20_NK,20,20,M,2022-12-12_15h17.40.434,dynamic target,2022.1.3,120.13137971723633,
0,2,1,2,T,0,31,31,31,,,,,,,None,331.53113295955336,None,330.5403191614241,None,331.0315659230182,None,1,[0.008616293664090335],[0.5176684372199816],331.53113295955336,None,[1 1 1 0 1 1 2 2],space,0,2.700733907186077,0.002193200485635316,None,331.54778730012185,None,1,334.2538124838429,None,None,334.7533806428775,None,,,,,,,,,,,,,,,,,,,,,,,,,,,,,,,,,,,,,,,,,,,,,,20_NK,20,20,M,2022-12-12_15h17.40.434,dynamic target,2022.1.3,120.13137971723633,
0,3,1,1,T,0,32,32,32,,,,,,,None,335.7858328581424,None,334.8116968126815,None,335.2862587659074,None,1,[0.00868011569036753],[0.5172861465180176],335.7858328581424,None,[3 2 0 2 2 0 3 1],space,0,2.0142494871324743,0.0025607383613532875,None,335.80248335014767,None,1,337.8174282868167,None,None,338.31700382226444,None,,,,,,,,,,,,,,,,,,,,,,,,,,,,,,,,,,,,,,,,,,,,,,20_NK,20,20,M,2022-12-12_15h17.40.434,dynamic target,2022.1.3,120.13137971723633,
0,2,2,2,T,0,33,33,33,,,,,,,None,339.3494537925362,None,338.375350780585,None,338.84988098315443,None,1,[0.008738485576031962],[0.5171299589528644],339.3494537925362,None,[0 0 3 2 0 0 0 1],space,0,1.586728854017565,0.0028827348905906547,None,339.3661074916781,None,1,340.9564146904813,None,None,341.4560004887691,None,,,,,,,,,,,,,,,,,,,,,,,,,,,,,,,,,,,,,,,,,,,,,,20_NK,20,20,M,2022-12-12_15h17.40.434,dynamic target,2022.1.3,120.13137971723633,
0,1,1,2,T,0,34,34,34,,,,,,,None,342.4884411583407,None,341.50596238798244,None,341.98887540465876,None,1,[0.008642912900540978],[0.5173621556568833],342.4884411583407,None,[2 2 2 3 3 0 3 3],space,0,1.4547538927763526,0.002781710081762867,None,342.50509710247934,None,1,343.96218176383627,None,None,344.46176692069383,None,,,,,,,,,,,,,,,,,,,,,,,,,,,,,,,,,,,,,,,,,,,,,,20_NK,20,20,M,2022-12-12_15h17.40.434,dynamic target,2022.1.3,120.13137971723633,
0,8,1,2,T,0,35,35,35,,,,,,,None,345.49422555023193,None,344.51171310493737,345.5108574408441,344.99463253589056,None,1,[0.2583274909957254],[0.7584176115415175],345.49422555023193,None,[0 0 0 2 3 2 0 2],space,0,1.1364195898204343,0.0030514302852679975,None,345.7523182788209,None,1,346.8930115206749,None,None,347.3925828868461,None,,,,,,,,,,,,,,,,,,,,,,,,,,,,,,,,,,,,,,,,,,,,,,20_NK,20,20,M,2022-12-12_15h17.40.434,dynamic target,2022.1.3,120.13137971723633,
0,7,2,2,T,0,36,36,36,,,,,,,None,348.4250344606844,None,347.44254350320625,None,347.92546293415944,None,1,[0.008615331524197245],[0.5172845429478912],348.4250344606844,None,[3 1 1 0 2 3 1 3],space,0,1.2153456223422836,0.00281314002131694,None,348.4416897633964,None,1,349.6573164731999,None,None,350.1568891222243,None,,,,,,,,,,,,,,,,,,,,,,,,,,,,,,,,,,,,,,,,,,,,,,20_NK,20,20,M,2022-12-12_15h17.40.434,dynamic target,2022.1.3,120.13137971723633,
0,6,2,2,T,0,37,37,37,,,,,,,None,351.189340054636,None,350.2068442864547,351.20600080948134,350.6897678866844,None,2,"[0.008611162247689208, 0.49985022671171464]","[0.21666261498467065, 1.000140793305036]",351.189340054636,None,[2 2 0 3 1 2 0 2],space,0,1.7271405092687928,0.002733923745836364,None,351.6889147883012,None,1,353.42076800662835,None,None,353.92034097636605,None,,,,,,,,,,,,,,,,,,,,,,,,,,,,,,,,,,,,,,,,,,,,,,20_NK,20,20,M,2022-12-12_15h17.40.434,dynamic target,2022.1.3,120.13137971723633,
0,5,3,2,T,0,38,38,38,,,,,,,None,354.9527992851945,None,353.9786853689766,354.97777133499767,354.45321942010924,None,3,"[0.15008373834280064, 0.6005693950646673, 1.3581085718433314]","[0.5342179044200748, 1.1080946207985107, 1.8665071009199892]",354.9527992851945,None,[2 2 1 2 3 0 1 3],space,0,2.9372317009947437,0.002480559935065685,None,356.318306080153,None,1,359.2574487355232,None,None,359.7570201016908,None,,,,,,,,,,,,,,,,,,,,,,,,,,,,,,,,,,,,,,,,,,,,,,20_NK,20,20,M,2022-12-12_15h17.40.434,dynamic target,2022.1.3,120.13137971723633,
0,4,2,2,T,0,39,39,39,,,,,,,None,360.7894739205258,None,359.8069996401573,None,360.28989886614727,None,1,[0.008630725780676585],[0.5174702361655363],360.7894739205258,None,[2 3 0 2 1 0 0 2],space,0,1.3297473983257078,0.002598261857201578,None,360.8061279403846,None,1,362.138318998499,None,None,362.63789196824035,None,,,,,,,,,,,,,,,,,,,,,,,,,,,,,,,,,,,,,,,,,,,,,,20_NK,20,20,M,2022-12-12_15h17.40.434,dynamic target,2022.1.3,120.13137971723633,
0,3,2,2,T,0,40,40,40,,,,,,,None,363.66202038071424,None,362.6795307060893,363.67868145626926,363.1624462884756,None,2,"[0.008641950760647887, 0.8836665655362594]","[0.058505871948000276, 1.3915240506394184]",363.66202038071424,None,[3 0 0 2 3 2 1 1],space,0,1.7423667118309822,0.002648613906785613,None,364.5529260953808,None,1,366.2931037579292,None,None,366.7927014226199,None,,,,,,,,,,,,,,,,,,,,,,,,,,,,,,,,,,,,,,,,,,,,,,20_NK,20,20,M,2022-12-12_15h17.40.434,dynamic target,2022.1.3,120.13137971723633,
0,2,2,2,T,0,41,41,41,,,,,,,None,367.82513952648515,None,366.8510249688443,367.8501083691517,367.3255561335536,None,2,"[0.008652534310385818, 0.5334719244019652]","[0.43362541796886944, 1.0338266337312234]",367.82513952648515,None,[1 1 1 1 0 0 3 3],space,0,1.8408582029769605,0.0023667065834160894,None,368.3580325627008,None,0,370.20642671724636,None,None,370.70601957123034,None,,,,,,,,,,,,,,,,,,,,,,,,,,,,,,,,,,,,,,,,,,,,,,20_NK,20,20,M,2022-12-12_15h17.40.434,dynamic target,2022.1.3,120.13137971723633,
0,7,4,0,T,0,42,42,42,,,,,,,None,371.7384528643888,None,370.7559609447708,371.7551049599642,371.23888037572397,None,2,"[0.008644837180327158, 0.21685857103875605]","[0.1587353105096554, 0.7251570374501171]",371.7384528643888,None,[3 0 3 0 0 1 2 1],space,0,2.7639837758506474,0.0030321874692162964,None,371.9632632103567,None,1,374.73587977855277,None,None,375.2354771225302,None,,,,,,,,,,,,,,,,,,,,,,,,,,,,,,,,,,,,,,,,,,,,,,20_NK,20,20,M,2022-12-12_15h17.40.434,dynamic target,2022.1.3,120.13137971723633,
0,6,4,2,T,0,43,43,43,,,,,,,None,376.2679149056821,None,375.2854287589071,None,375.7683430584402,None,1,[0.00855632020829944],[0.5174352783760696],376.2679149056821,None,[0 3 1 3 1 3 0 3],space,0,2.5386163502262207,0.0025132727387244813,None,376.2845692462506,None,1,378.8240667392347,None,None,379.32363810540227,None,,,,,,,,,,,,,,,,,,,,,,,,,,,,,,,,,,,,,,,,,,,,,,20_NK,20,20,M,2022-12-12_15h17.40.434,dynamic target,2022.1.3,120.13137971723633,
0,5,4,2,T,0,44,44,44,,,,,,,None,380.35608807567405,None,379.3819857051494,380.381075840447,379.85651430415237,None,1,[0.9254969298090145],[1.4327235711061803],380.35608807567405,None,[0 2 3 0 1 0 2 0],space,0,2.2384835106240644,0.00309440591809107,None,381.28863461283254,None,1,383.52837802905924,None,None,384.02795196094047,None,,,,,,,,,,,,,,,,,,,,,,,,,,,,,,,,,,,,,,,,,,,,,,20_NK,20,20,M,2022-12-12_15h17.40.434,dynamic target,2022.1.3,120.13137971723633,
0,4,1,2,T,0,45,45,45,,,,,,,None,385.060423419025,None,384.07791835014723,None,384.56083136682355,None,1,[0.008670173563587014],[0.5171059054300713],385.060423419025,None,[2 2 0 3 1 2 2 2],space,0,1.20161490765895,0.0028596435040526558,None,385.0770549889239,None,1,386.27604018670536,None,None,386.77560449717674,None,,,,,,,,,,,,,,,,,,,,,,,,,,,,,,,,,,,,,,,,,,,,,,20_NK,20,20,M,2022-12-12_15h17.40.434,dynamic target,2022.1.3,120.13137971723633,
0,3,3,2,T,0,46,46,46,,,,,,,None,387.8080573538682,None,386.8338959720277,387.83303453509143,387.30847684736,None,2,"[0.008691019953403156, 0.8587721284420695]","[0.3416617330185545, 1.366682531301194]",387.8080573538682,None,[0 3 3 2 2 1 1 3],space,0,1.540754869030934,0.0026207118207821622,None,388.6739836423185,None,1,390.21436341862864,None,None,390.71390303414336,None,,,,,,,,,,,,,,,,,,,,,,,,,,,,,,,,,,,,,,,,,,,,,,20_NK,20,20,M,2022-12-12_15h17.40.434,dynamic target,2022.1.3,120.13137971723633,
0,2,1,2,T,0,47,47,47,,,,,,,None,391.746365191535,None,390.76387102692024,391.7630150421137,391.24678468502316,None,2,"[0.008383134820178384, 0.7417847587857977]","[0.4827821654944273, 1.2495790632965509]",391.746365191535,None,[0 3 0 1 3 3 2 1],space,0,1.542381528804981,0.0026697810062614735,None,392.49571815168747,None,1,394.0360757987546,None,None,394.5356420335058,None,,,,,,,,,,,,,,,,,,,,,,,,,,,,,,,,,,,,,,,,,,,,,,20_NK,20,20,M,2022-12-12_15h17.40.434,dynamic target,2022.1.3,120.13137971723633,
0,1,4,2,T,0,48,48,48,,,,,,,None,395.56809360734405,None,394.5939877089695,None,395.06852047724897,None,1,[0.008666325000376673],[0.517255358005059],395.56809360734405,None,[1 3 1 1 2 3 3 3],space,0,2.165984900915646,0.002902619140513707,None,395.5847453822025,None,1,397.7495633483268,None,None,398.24914305305464,None,,,,,,,,,,,,,,,,,,,,,,,,,,,,,,,,,,,,,,,,,,,,,,20_NK,20,20,M,2022-12-12_15h17.40.434,dynamic target,2022.1.3,120.13137971723633,
0,8,1,2,T,0,49,49,49,,,,,,,None,399.28158692976285,None,398.2991065558381,None,398.7820154032379,None,1,[0.008623990794148995],[0.517531492481794],399.28158692976285,None,[1 1 2 1 3 1 3 2],space,0,1.2351981197061832,0.001891729625640437,None,399.29824319461477,None,1,400.5388477270717,None,None,401.0384277525092,None,,,,,,,,,,,,,,,,,,,,,,,,,,,,,,,,,,,,,,,,,,,,,,20_NK,20,20,M,2022-12-12_15h17.40.434,dynamic target,2022.1.3,120.13137971723633,
0,7,3,2,T,0,50,50,50,,,,,,,None,402.0708838163373,None,401.0883768231761,None,401.57129753698246,None,1,[0.008703527786565246],[0.5169766578183044],402.0708838163373,None,[2 0 3 3 0 0 2 3],space,0,2.5433876076131128,0.003258290609664982,None,402.08752276265295,None,1,404.63535432126446,None,None,405.134917348879,None,,,,,,,,,,,,,,,,,,,,,,,,,,,,,,,,,,,,,,,,,,,,,,20_NK,20,20,M,2022-12-12_15h17.40.434,dynamic target,2022.1.3,120.13137971723633,
0,6,1,2,T,0,51,51,51,,,,,,,None,406.16737116771037,None,405.19326559005276,None,405.66780477260545,None,1,[0.00866953213699162],[0.5176799829132506],406.16737116771037,None,[0 0 1 1 1 2 3 0],space,0,2.461132246400666,0.0024205864829127677,None,406.1840226218592,None,1,408.6485844018971,None,None,409.1481551266417,None,,,,,,,,,,,,,,,,,,,,,,,,,,,,,,,,,,,,,,,,,,,,,,20_NK,20,20,M,2022-12-12_15h17.40.434,dynamic target,2022.1.3,120.13137971723633,
0,1,2,0,T,0,52,52,52,,,,,,,None,410.18060670048,None,409.2064931049754,None,409.6810589067645,None,1,[0.008656382873596158],[0.517577675247594],410.18060670048,None,[3 3 2 2 2 1 1 0],space,0,1.6957596380416362,0.0024741456654737704,None,410.1972847738616,None,1,411.89580878537527,None,None,412.39538239653956,None,,,,,,,,,,,,,,,,,,,,,,,,,,,,,,,,,,,,,,,,,,,,,,20_NK,20,20,M,2022-12-12_15h17.40.434,dynamic target,2022.1.3,120.13137971723633,
0,8,4,2,T,0,53,53,53,,,,,,,None,413.4278500060609,None,412.45371780916685,413.45281660373075,412.92826116099604,None,2,"[0.008651892883790424, 0.39986934124681284]","[0.3832137178214907, 0.9003250753848988]",413.4278500060609,None,[3 3 0 0 0 2 3 3],space,0,2.5299965287122177,0.0025665112043498084,None,413.82749548916036,None,1,416.35866757578333,None,None,416.8582344519611,None,,,,,,,,,,,,,,,,,,,,,,,,,,,,,,,,,,,,,,,,,,,,,,20_NK,20,20,M,2022-12-12_15h17.40.434,dynamic target,2022.1.3,120.13137971723633,
0,8,3,0,T,0,54,54,54,,,,,,,None,417.8906876293695,None,416.91658493813156,None,417.3911122542777,None,1,[0.008474217505863635],[0.517535661758302],417.8906876293695,None,[1 0 3 2 3 3 1 3],space,0,1.217638404425088,0.0023429737739206757,None,417.9073371592349,None,1,419.1229693211717,None,None,419.6225390837728,None,,,,,,,,,,,,,,,,,,,,,,,,,,,,,,,,,,,,,,,,,,,,,,20_NK,20,20,M,2022-12-12_15h17.40.434,dynamic target,2022.1.3,120.13137971723633,
0,7,1,2,T,0,55,55,55,,,,,,,None,420.65501118328757,None,419.68088636280663,420.6799825916605,420.1554265074992,None,2,"[0.008662155720230658, 0.7501682143229118]","[0.45818342641359777, 1.2580301894195145]",420.65501118328757,None,[3 1 3 1 2 3 0 0],space,0,1.2963434652228898,0.003175546480633784,None,421.4126757591148,None,1,422.711568398925,None,None,423.21114874507947,None,,,,,,,,,,,,,,,,,,,,,,,,,,,,,,,,,,,,,,,,,,,,,,20_NK,20,20,M,2022-12-12_15h17.40.434,dynamic target,2022.1.3,120.13137971723633,
0,6,4,2,T,0,56,56,56,,,,,,,None,424.2435923010744,None,423.26110006074305,None,423.7440185295527,None,1,[0.008650930743897334],[0.5172778079613636],424.2435923010744,None,[0 0 0 0 1 0 1 2],space,0,2.3362508302816423,0.0027214159126742743,None,424.2602456795066,None,1,426.5999119320222,None,None,427.09948490176356,None,,,,,,,,,,,,,,,,,,,,,,,,,,,,,,,,,,,,,,,,,,,,,,20_NK,20,20,M,2022-12-12_15h17.40.434,dynamic target,2022.1.3,120.13137971723633,
0,5,4,2,T,0,57,57,57,,,,,,,None,428.13194000345175,None,427.1494509702534,None,427.6323729669166,None,1,[0.008617255807621405],[0.517003277051117],428.13194000345175,None,[0 0 0 2 0 2 1 1],space,0,1.9683287406151067,0.0031450786846107803,None,428.14859626830366,None,1,430.11357561754994,None,None,430.6131582086975,None,,,,,,,,,,,,,,,,,,,,,,,,,,,,,,,,,,,,,,,,,,,,,,20_NK,20,20,M,2022-12-12_15h17.40.434,dynamic target,2022.1.3,120.13137971723633,
0,4,2,2,T,0,58,58,58,,,,,,,None,431.6456040096891,None,430.6631117693578,431.66225386027145,431.13770611466316,None,1,[0.06636752632766729],[0.5667324984933657],431.6456040096891,None,[1 3 3 3 1 1 0 2],space,0,1.9166146222232783,0.002610448977065971,None,431.70391488772293,None,1,433.61891517956974,None,None,434.11848622502765,None,,,,,,,,,,,,,,,,,,,,,,,,,,,,,,,,,,,,,,,,,,,,,,20_NK,20,20,M,2022-12-12_15h17.40.434,dynamic target,2022.1.3,120.13137971723633,
0,3,2,2,T,0,59,59,59,,,,,,,None,435.1509390817191,None,434.1768242033613,None,434.651374610894,None,1,[0.008674984270328423],[0.5170356691342022],435.1509390817191,None,[0 1 1 3 0 3 1 2],space,0,1.6050156272103777,0.0029818354196322616,None,435.1675921394344,None,1,436.77455752737296,None,space,437.28245574311586,None,3.9910622089482786,,,,,,,,,,,,,,,,,,,,,,,,,,,,,,,,,,,,,,,,,,,,,20_NK,20,20,M,2022-12-12_15h17.40.434,dynamic target,2022.1.3,120.13137971723633,
0,4,3,1,T,0,60,60,60,,,,,,,None,442.31982337656154,None,441.34570657392396,442.34479574708166,441.8202406250566,None,2,"[0.008641950760647887, 0.12509661499643698]","[0.02514651804449386, 0.6258929470568546]",442.31982337656154,None,[2 2 1 3 2 1 1 3],space,0,1.8472381601714005,0.0021832583588548005,None,442.4447147348037,None,1,444.29312684931574,None,None,444.79269885691355,None,,,,,,,,,,,,,,,,,,,,,,,,,,,,,,,,,,,,,,,,,,,,,,20_NK,20,20,M,2022-12-12_15h17.40.434,dynamic target,2022.1.3,120.13137971723633,
0,3,1,2,T,0,61,61,61,,,,,,,None,445.8251555621682,None,444.8510349109674,None,445.3255766592265,None,1,[0.008611482960986905],[0.5176726064964896],445.8251555621682,None,[1 3 0 1 2 2 2 2],space,0,1.906152300627582,0.0023901186796138063,None,445.8418028470405,None,1,447.7485245567259,None,None,448.2480824529204,None,,,,,,,,,,,,,,,,,,,,,,,,,,,,,,,,,,,,,,,,,,,,,,20_NK,20,20,M,2022-12-12_15h17.40.434,dynamic target,2022.1.3,120.13137971723633,
0,2,4,2,T,0,62,62,62,,,,,,,None,449.28053210247526,None,448.29806744352027,449.2971890087574,448.780962820947,None,1,[0.091688512613473],[0.5920217341263196],449.28053210247526,None,[1 0 2 0 3 3 2 3],space,0,1.4476571405175491,0.0024250764763564803,None,449.37212440098665,None,1,450.82088076955915,None,None,451.3204617571402,None,,,,,,,,,,,,,,,,,,,,,,,,,,,,,,,,,,,,,,,,,,,,,,20_NK,20,20,M,2022-12-12_15h17.40.434,dynamic target,2022.1.3,120.13137971723633,
0,1,4,2,T,0,63,63,63,,,,,,,None,452.3529219902448,None,451.3788055083205,None,451.8533283344768,None,1,[0.008633612203993835],[0.5172986543511797],452.3529219902448,None,[1 2 0 0 0 3 0 3],space,0,1.9697177515517978,0.0026139768306165934,None,452.36956831297357,None,1,454.34287018215764,None,None,454.84245918758205,None,,,,,,,,,,,,,,,,,,,,,,,,,,,,,,,,,,,,,,,,,,,,,,20_NK,20,20,M,2022-12-12_15h17.40.434,dynamic target,2022.1.3,120.13137971723633,
0,8,2,2,T,0,64,64,64,,,,,,,None,455.87489697073033,None,454.90077760238273,None,455.3753251234921,None,1,[0.008640667903819121],[0.517278449387959],455.87489697073033,None,[3 1 1 3 1 2 1 2],space,0,1.1674877652076248,0.002633540367241949,None,455.89155612200557,None,1,457.0572207722398,None,None,457.5567943834041,None,,,,,,,,,,,,,,,,,,,,,,,,,,,,,,,,,,,,,,,,,,,,,,20_NK,20,20,M,2022-12-12_15h17.40.434,dynamic target,2022.1.3,120.13137971723633,
0,7,3,2,T,0,65,65,65,,,,,,,None,458.58925814436225,None,457.60675339619775,458.6058807342815,458.0896939942504,None,2,"[0.008717639189853799, 0.6259939718656824]","[0.3832332813581161, 1.133268078792753]",458.58925814436225,None,[1 2 3 3 3 0 1 3],space,0,1.4212450863014965,0.002511027738364646,None,459.22203745550723,None,0,460.64582081213666,None,None,461.14539249902117,None,,,,,,,,,,,,,,,,,,,,,,,,,,,,,,,,,,,,,,,,,,,,,,20_NK,20,20,M,2022-12-12_15h17.40.434,dynamic target,2022.1.3,120.13137971723633,
0,6,2,2,T,0,66,66,66,,,,,,,None,462.17784535571263,None,461.2037368916317,462.20282414050234,461.67827190490425,None,2,"[0.15870323914350593, 0.8002960828671348]","[0.6254866028284596, 1.3079351619562658]",462.17784535571263,None,[0 2 3 1 3 0 1 2],space,0,1.7541320931013615,0.003092802347964607,None,462.9854867439426,None,1,464.74232516133634,None,None,465.2418913960839,None,,,,,,,,,,,,,,,,,,,,,,,,,,,,,,,,,,,,,,,,,,,,,,20_NK,20,20,M,2022-12-12_15h17.40.434,dynamic target,2022.1.3,120.13137971723633,
0,5,1,2,T,0,67,67,67,,,,,,,None,466.2743497049123,None,465.3002508622376,None,465.7747714433972,None,1,[0.008885693157935748],[0.5176754929234448],466.2743497049123,None,[0 2 2 3 3 3 1 0],space,0,2.0959160180318577,0.0025337984116049483,None,466.2910040454808,None,1,468.3892020836138,None,None,468.88877665691797,None,,,,,,,,,,,,,,,,,,,,,,,,,,,,,,,,,,,,,,,,,,,,,,20_NK,20,20,M,2022-12-12_15h17.40.434,dynamic target,2022.1.3,120.13137971723633,
0,4,1,2,T,0,68,68,68,,,,,,,None,469.92122951361307,None,468.9387286140118,None,469.4216743434845,None,1,[0.008777612645644695],[0.5174683118857502],469.92122951361307,None,[1 0 0 3 2 1 0 2],space,0,1.48833485983414,0.002577736184321111,None,469.9378812884752,None,1,471.4282711031192,None,None,471.9278459971403,None,,,,,,,,,,,,,,,,,,,,,,,,,,,,,,,,,,,,,,,,,,,,,,20_NK,20,20,M,2022-12-12_15h17.40.434,dynamic target,2022.1.3,120.13137971723633,
0,3,1,2,T,0,69,69,69,,,,,,,None,472.9603030231119,None,471.9778114242072,None,472.4607231580303,None,1,[0.008634574347524904],[0.5171055847167736],472.9603030231119,None,[3 3 0 1 0 0 3 1],space,0,1.7298739519428636,0.003030263182154158,None,472.97696025010373,None,1,474.7088038470247,None,None,475.2083764960491,None,,,,,,,,,,,,,,,,,,,,,,,,,,,,,,,,,,,,,,,,,,,,,,20_NK,20,20,M,2022-12-12_15h17.40.434,dynamic target,2022.1.3,120.13137971723633,
0,2,2,2,T,0,70,70,70,,,,,,,None,476.24083223916386,None,475.2667029286931,None,475.7412539776524,None,1,[0.008650930743897334],[0.5172053266687726],476.24083223916386,None,[0 0 0 2 1 2 0 3],space,0,1.3609063356852857,0.0028724720505124424,None,476.2574869004493,None,1,477.61465353622043,None,None,478.11422522310494,None,,,,,,,,,,,,,,,,,,,,,,,,,,,,,,,,,,,,,,,,,,,,,,20_NK,20,20,M,2022-12-12_15h17.40.434,dynamic target,2022.1.3,120.13137971723633,
0,1,3,2,T,0,71,71,71,,,,,,,None,479.1466816076463,None,478.1725513350357,None,478.6471036668481,None,1,[0.008627518644061638],[0.517013860604493],479.1466816076463,None,[2 2 2 2 1 1 3 1],space,0,1.7029102701999363,0.0028772827608918305,None,479.1633292132319,None,1,480.870201081063,None,None,481.36977629579377,None,,,,,,,,,,,,,,,,,,,,,,,,,,,,,,,,,,,,,,,,,,,,,,20_NK,20,20,M,2022-12-12_15h17.40.434,dynamic target,2022.1.3,120.13137971723633,
0,2,2,1,T,0,72,72,72,,,,,,,None,482.40224454674535,None,481.41974076072074,None,481.9026557016805,None,1,[0.008644195753731765],[0.5172386808917508],482.40224454674535,None,[2 1 2 0 3 1 0 0],space,0,1.9672072048815608,0.0028352692679618485,None,482.4188806066377,None,1,484.3838679737237,None,None,484.8834425470315,None,,,,,,,,,,,,,,,,,,,,,,,,,,,,,,,,,,,,,,,,,,,,,,20_NK,20,20,M,2022-12-12_15h17.40.434,dynamic target,2022.1.3,120.13137971723633,
0,1,2,2,T,0,73,73,73,,,,,,,None,485.91589572443627,None,484.9334009183949,485.9325526307184,485.41631938720457,None,3,"[0.008607313684478868, 0.47482846628918196, 1.0416664795848192]","[0.18395238556695404, 0.8082542720694619, 1.549680472962791]",485.91589572443627,None,[2 1 0 1 2 0 1 1],space,0,3.0047589279820386,0.0025610590710130055,None,486.9649969884995,None,1,489.97076149614077,None,None,490.4703389558719,None,,,,,,,,,,,,,,,,,,,,,,,,,,,,,,,,,,,,,,,,,,,,,,20_NK,20,20,M,2022-12-12_15h17.40.434,dynamic target,2022.1.3,120.13137971723633,
0,8,4,2,T,0,74,74,74,,,,,,,None,491.5027898882836,None,490.5286750099258,None,491.0032141924785,None,1,[0.008698717079823837],[0.5169115529388364],491.5027898882836,None,[2 0 1 1 3 1 2 2],space,0,1.1863585580067593,0.003192223590303911,None,491.51943781457885,None,1,492.71008798458934,None,None,493.20965935076055,None,,,,,,,,,,,,,,,,,,,,,,,,,,,,,,,,,,,,,,,,,,,,,,20_NK,20,20,M,2022-12-12_15h17.40.434,dynamic target,2022.1.3,120.13137971723633,
0,7,1,2,T,0,75,75,75,,,,,,,None,494.2421115660254,None,493.2680184961973,None,493.7425387566436,None,1,[0.008654458593809977],[0.5177434842225921],494.2421115660254,None,[1 0 3 1 1 2 0 1],space,0,2.4937975759057736,0.002230082554888213,None,494.25877424515056,None,0,496.76495728414375,None,None,497.26452640531824,None,,,,,,,,,,,,,,,,,,,,,,,,,,,,,,,,,,,,,,,,,,,,,,20_NK,20,20,M,2022-12-12_15h17.40.434,dynamic target,2022.1.3,120.13137971723633,
0,8,3,1,T,0,76,76,76,,,,,,,None,498.29697894130004,None,497.3228765707754,None,497.79740741477144,None,1,[0.008596730131102959],[0.5172527922950394],498.29697894130004,None,[0 1 2 2 3 2 1 1],space,0,2.679373093393224,0.002394287959759822,None,498.3136429032784,None,1,500.99467871866,None,None,501.4942555369609,None,,,,,,,,,,,,,,,,,,,,,,,,,,,,,,,,,,,,,,,,,,,,,,20_NK,20,20,M,2022-12-12_15h17.40.434,dynamic target,2022.1.3,120.13137971723633,
0,7,3,2,T,0,77,77,77,,,,,,,None,502.52670839365237,None,501.55258453531496,502.55167948131566,502.02712724571757,None,2,"[0.008603785834566224, 0.2833931891982502]","[0.06683833400893491, 0.7839986966209835]",502.52670839365237,None,[3 2 2 1 2 1 0 1],space,0,1.7828792636028084,0.0021762026590295136,None,502.8097898491542,None,1,504.5915996749245,None,None,505.091171361809,None,,,,,,,,,,,,,,,,,,,,,,,,,,,,,,,,,,,,,,,,,,,,,,20_NK,20,20,M,2022-12-12_15h17.40.434,dynamic target,2022.1.3,120.13137971723633,
0,6,1,2,T,0,78,78,78,,,,,,,None,506.1236303120604,None,505.14952120654925,506.1486046068603,505.624051729832,None,2,"[0.007745876744593261, 0.4822747964608425]","[0.12421433166673523, 0.9833017216551525]",506.1236303120604,None,[2 1 3 0 2 1 2 0],space,0,2.401964742137352,0.0021685055289708544,None,506.6065474980169,None,1,509.01282373640424,None,None,509.51241402468185,None,,,,,,,,,,,,,,,,,,,,,,,,,,,,,,,,,,,,,,,,,,,,,,20_NK,20,20,M,2022-12-12_15h17.40.434,dynamic target,2022.1.3,120.13137971723633,
0,5,2,2,T,0,79,79,79,,,,,,,None,510.54485886352995,None,509.56235828464196,510.56150229983905,510.04528028130517,None,1,[0.09965920964532415],[0.600048876764049],510.54485886352995,None,[0 0 1 3 2 0 1 1],space,0,2.5394290386866487,0.0025408541077922564,None,510.6447666262793,None,1,513.1842570635599,None,None,513.683827788301,None,,,,,,,,,,,,,,,,,,,,,,,,,,,,,,,,,,,,,,,,,,,,,,20_NK,20,20,M,2022-12-12_15h17.40.434,dynamic target,2022.1.3,120.13137971723633,
0,4,3,2,T,0,80,80,80,,,,,,,None,514.7162883421224,None,513.7254806375531,514.7246108620602,514.2167338134204,None,2,"[0.008603785830928246, 0.7669643103399721]","[0.5174436169290857, 1.2745344359900628]",514.7162883421224,None,[3 2 1 3 2 2 3 1],space,0,1.6626671179183177,0.0032608563160465565,None,515.4906223320613,None,1,517.1558652438107,None,None,517.6554366099783,None,,,,,,,,,,,,,,,,,,,,,,,,,,,,,,,,,,,,,,,,,,,,,,20_NK,20,20,M,2022-12-12_15h17.40.434,dynamic target,2022.1.3,120.13137971723633,
0,3,3,2,T,0,81,81,81,,,,,,,None,518.679563739599,None,517.7137742676023,518.7128785142995,518.179989647364,None,1,[0.058701828005723655],[0.566785736966267],518.679563739599,None,[1 2 3 3 3 3 0 1],space,0,1.7345162824276485,0.0028561156541400123,None,518.7461811018838,None,1,520.4780381687742,None,None,520.9775986306825,None,,,,,,,,,,,,,,,,,,,,,,,,,,,,,,,,,,,,,,,,,,,,,,20_NK,20,20,M,2022-12-12_15h17.40.434,dynamic target,2022.1.3,120.13137971723633,
0,2,4,2,T,0,82,82,82,,,,,,,None,522.010050525234,None,521.027588111272,None,521.5104780365655,None,1,[0.008711866343219299],[0.5170930768836115],522.010050525234,None,[3 2 1 3 1 2 2 1],space,0,1.3492836720070045,0.002952971186459763,None,522.0267016586658,None,1,523.3755329459527,None,None,523.8751225928038,None,,,,,,,,,,,,,,,,,,,,,,,,,,,,,,,,,,,,,,,,,,,,,,20_NK,20,20,M,2022-12-12_15h17.40.434,dynamic target,2022.1.3,120.13137971723633,
0,1,1,2,T,0,83,83,83,,,,,,,None,524.9075738459287,None,523.9250873784404,None,524.408000074407,None,1,[0.008668249283800833],[0.5174468240693386],524.9075738459287,None,[3 1 3 2 3 1 0 0],space,0,2.5472906930699537,0.002575170474301558,None,524.9242339593438,None,1,527.4720469165622,None,None,527.9716227727233,None,,,,,,,,,,,,,,,,,,,,,,,,,,,,,,,,,,,,,,,,,,,,,,20_NK,20,20,M,2022-12-12_15h17.40.434,dynamic target,2022.1.3,120.13137971723633,
0,1,3,0,T,0,84,84,84,,,,,,,None,529.0040740258482,None,528.0299617132005,None,528.5044999336133,None,1,[0.00855054736166494],[0.5170847383269574],529.0040740258482,None,[3 1 1 2 1 1 1 2],space,0,1.4108821859445015,0.00288209346763324,None,529.0207306114135,None,1,530.436181505982,None,None,530.9357705114028,None,,,,,,,,,,,,,,,,,,,,,,,,,,,,,,,,,,,,,,,,,,,,,,20_NK,20,20,M,2022-12-12_15h17.40.434,dynamic target,2022.1.3,120.13137971723633,
0,8,4,2,T,0,85,85,85,,,,,,,None,531.9682066909845,None,530.9857170163632,None,531.4686223359131,None,1,[0.008648044320580084],[0.5175523388679721],531.9682066909845,None,[2 3 3 0 3 3 1 2],space,0,1.406703607441159,0.002128416319465032,None,531.98486391798,None,1,533.391990047614,None,None,533.8915857880213,None,,,,,,,,,,,,,,,,,,,,,,,,,,,,,,,,,,,,,,,,,,,,,,20_NK,20,20,M,2022-12-12_15h17.40.434,dynamic target,2022.1.3,120.13137971723633,
0,7,1,2,T,0,86,86,86,,,,,,,None,534.9240235711732,None,533.949909334242,None,534.4244629489112,None,1,[0.008629442927485798],[0.5172855050914222],534.9240235711732,None,[0 3 1 2 1 1 3 0],space,0,1.6355863756871258,0.0026636874536052346,None,534.9406647624819,None,1,536.580961281521,None,None,537.0805041041724,None,,,,,,,,,,,,,,,,,,,,,,,,,,,,,,,,,,,,,,,,,,,,,,20_NK,20,20,M,2022-12-12_15h17.40.434,dynamic target,2022.1.3,120.13137971723633,
0,6,1,2,T,0,87,87,87,,,,,,,None,538.1129620922839,None,537.1304746626556,538.1296061700195,537.6133825479155,None,2,"[0.00867722926705028, 0.7502281877823407]","[0.5171706895926036, 1.2579448795841017]",538.1129620922839,None,[1 3 2 2 0 0 2 2],space,0,2.137176794814877,0.003200241433660267,None,538.8706427037941,None,1,541.0104773951389,None,None,541.5100510063032,None,,,,,,,,,,,,,,,,,,,,,,,,,,,,,,,,,,,,,,,,,,,,,,20_NK,20,20,M,2022-12-12_15h17.40.434,dynamic target,2022.1.3,120.13137971723633,
0,5,1,2,T,0,88,88,88,,,,,,,None,542.5425086737014,None,541.5683867396438,None,542.0429307328995,None,1,[0.008684284963237587],[0.517014822744386],542.5425086737014,None,[1 1 2 3 1 2 1 0],space,0,2.7044452058617026,0.0031110830277611967,None,542.5591556378567,None,1,545.2651946122678,None,None,545.7647483391822,None,,,,,,,,,,,,,,,,,,,,,,,,,,,,,,,,,,,,,,,,,,,,,,20_NK,20,20,M,2022-12-12_15h17.40.434,dynamic target,2022.1.3,120.13137971723633,
0,3,4,0,T,0,89,89,89,,,,,,,None,546.7971986301673,None,545.8147686082884,None,546.2976280657822,None,1,[0.009110513445193646],[0.5174679911724525],546.7971986301673,None,[2 2 0 1 2 1 1 1],space,0,1.61734482312022,0.0024606756887806114,None,546.8138712514192,None,1,548.4291476136023,None,None,548.9287099997866,None,,,,,,,,,,,,,,,,,,,,,,,,,,,,,,,,,,,,,,,,,,,,,,20_NK,20,20,M,2022-12-12_15h17.40.434,dynamic target,2022.1.3,120.13137971723633,
0,2,1,2,T,0,90,90,90,,,,,,,None,549.9611634979083,None,548.97867959613,None,549.4615900470999,None,1,[0.008669852850289317],[0.5174288641028397],549.9611634979083,None,[0 0 0 3 0 3 1 3],space,0,1.6525158885888231,0.0027166052095708437,None,549.977823611327,None,1,551.6347366267219,None,None,552.1343156900195,None,,,,,,,,,,,,,,,,,,,,,,,,,,,,,,,,,,,,,,,,,,,,,,20_NK,20,20,M,2022-12-12_15h17.40.434,dynamic target,2022.1.3,120.13137971723633,
0,1,2,2,T,0,91,91,91,,,,,,,None,553.166757321731,None,552.1842516114266,553.1834078137399,552.6671829087827,None,2,"[0.008969720136519754, 0.5508725657018658]","[0.30831488695184817, 1.05833396941307]",553.166757321731,None,[1 0 0 0 1 2 2 1],space,0,1.9056574394235213,0.002497557768947445,None,553.72462144561,None,1,555.6313178189157,None,None,556.1308824500968,None,,,,,,,,,,,,,,,,,,,,,,,,,,,,,,,,,,,,,,,,,,,,,,20_NK,20,20,M,2022-12-12_15h17.40.434,dynamic target,2022.1.3,120.13137971723633,
0,8,4,2,T,0,92,92,92,,,,,,,None,557.163342683205,None,556.1725186222393,None,556.6637692323966,None,1,[0.008624952934042085],[0.5173579863803752],557.163342683205,None,[1 3 2 2 0 0 1 0],space,0,2.2743729747307952,0.0027105116423626896,None,557.1800011930536,None,1,559.4530523282847,None,None,559.9526230530257,None,,,,,,,,,,,,,,,,,,,,,,,,,,,,,,,,,,,,,,,,,,,,,,20_NK,20,20,M,2022-12-12_15h17.40.434,dynamic target,2022.1.3,120.13137971723633,
0,1,4,1,T,0,93,93,93,,,,,,,None,560.9850755890075,None,560.0109552585163,561.0100569395072,560.4855101560388,None,1,[0.08304592042622971],[0.5837027420384402],560.9850755890075,None,[1 0 3 0 2 2 0 3],space,0,1.617903506350558,0.0027688815353030805,None,561.0683386325909,None,1,562.6836249369007,None,None,563.1831943787886,None,,,,,,,,,,,,,,,,,,,,,,,,,,,,,,,,,,,,,,,,,,,,,,20_NK,20,20,M,2022-12-12_15h17.40.434,dynamic target,2022.1.3,120.13137971723633,
0,8,2,2,T,0,94,94,94,,,,,,,None,564.2156485183332,None,563.233180010815,None,563.7160734639583,None,1,[0.009456242787564406],[0.5175847309510573],564.2156485183332,None,[0 0 2 1 2 3 1 0],space,0,1.89327885360035,0.0025908854404406156,None,564.2322916339253,None,1,566.1306779951301,None,None,566.6302503234413,None,,,,,,,,,,,,,,,,,,,,,,,,,,,,,,,,,,,,,,,,,,,,,,20_NK,20,20,M,2022-12-12_15h17.40.434,dynamic target,2022.1.3,120.13137971723633,
0,7,2,2,T,0,95,95,95,,,,,,,None,567.6627089529793,None,566.6802112605146,567.6793539928512,567.1631345400274,None,2,"[0.00869935850641923, 0.17520652357052313]","[0.05020002911987831, 0.6758890022792912]",567.6627089529793,None,[1 2 3 2 1 1 2 3],space,0,1.776891218527453,0.002242269674752606,None,567.8375537115244,None,1,569.6193619337246,None,None,570.1189358656022,None,,,,,,,,,,,,,,,,,,,,,,,,,,,,,,,,,,,,,,,,,,,,,,20_NK,20,20,M,2022-12-12_15h17.40.434,dynamic target,2022.1.3,120.13137971723633,
0,6,4,2,T,0,96,96,96,,,,,,,None,571.1513867980138,None,570.1772770510761,None,570.6518184786255,None,1,[0.008727902026294032],[0.5171418253594311],571.1513867980138,None,[1 1 3 0 1 3 0 1],space,0,3.3742470625402348,0.002815705731336493,None,571.168041138586,None,1,574.5401578424426,None,None,575.039705796514,None,,,,,,,,,,,,,,,,,,,,,,,,,,,,,,,,,,,,,,,,,,,,,,20_NK,20,20,M,2022-12-12_15h17.40.434,dynamic target,2022.1.3,120.13137971723633,
0,5,2,2,T,0,97,97,97,,,,,,,None,576.0721830274488,None,575.0980671869511,576.0971592465285,575.5726095766368,None,2,"[0.06687040537508437, 0.7666205052773876]","[0.3666892662913597, 1.2668703412309696]",576.0721830274488,None,[0 0 2 3 0 3 0 2],space,0,2.311123555060476,0.002450412852340378,None,576.8381951388801,None,1,579.1528822858927,None,None,579.65249791055,None,,,,,,,,,,,,,,,,,,,,,,,,,,,,,,,,,,,,,,,,,,,,,,20_NK,20,20,M,2022-12-12_15h17.40.434,dynamic target,2022.1.3,120.13137971723633,
0,4,1,2,T,0,98,98,98,,,,,,,None,580.6849084330388,None,579.7024206826973,None,580.1853336993736,None,1,[0.009191974717396079],[0.5174933275520743],580.6849084330388,None,[0 2 2 1 3 0 0 2],space,0,1.3116325276641874,0.002583188321295893,None,580.7015586043308,None,1,582.0171071882833,None,None,582.5166817615911,None,,,,,,,,,,,,,,,,,,,,,,,,,,,,,,,,,,,,,,,,,,,,,,20_NK,20,20,M,2022-12-12_15h17.40.434,dynamic target,2022.1.3,120.13137971723633,
0,5,3,1,T,0,99,99,99,,,,,,,None,583.5491288454359,None,582.5750418691714,None,583.0495521874909,None,1,[0.008632329350803047],[0.5171601060428657],583.5491288454359,None,[3 2 3 3 0 3 1 1],space,0,1.8239136165284435,0.002810574311297387,None,583.5657770924481,None,1,585.3892184400102,None,None,585.8887926926011,None,,,,,,,,,,,,,,,,,,,,,,,,,,,,,,,,,,,,,,,,,,,,,,20_NK,20,20,M,2022-12-12_15h17.40.434,dynamic target,2022.1.3,120.13137971723633,
0,3,1,0,T,0,100,100,100,,,,,,,None,586.9212574157027,None,585.9387558746712,None,586.4216791541876,None,1,[0.008616935090685729],[0.517738352798915],586.9212574157027,None,[1 3 3 3 1 3 3 0],space,0,1.3629784667573404,0.0022496460951515473,None,586.9378982862982,None,1,588.3034063641135,None,None,588.802967788158,None,,,,,,,,,,,,,,,,,,,,,,,,,,,,,,,,,,,,,,,,,,,,,,20_NK,20,20,M,2022-12-12_15h17.40.434,dynamic target,2022.1.3,120.13137971723633,
0,2,1,2,T,0,101,101,101,,,,,,,None,589.8354200034264,None,588.8529261595249,None,589.3358481561845,None,1,[0.009391779338329798],[0.5175693366945779],589.8354200034264,None,[3 3 2 2 3 2 2 2],space,0,1.7930757135618478,0.0023067331312631723,None,589.8520781925617,None,0,591.650533058204,None,None,592.1501079522252,None,,,,,,,,,,,,,,,,,,,,,,,,,,,,,,,,,,,,,,,,,,,,,,20_NK,20,20,M,2022-12-12_15h17.40.434,dynamic target,2022.1.3,120.13137971723633,
0,1,3,2,T,0,102,102,102,,,,,,,None,593.1825611296299,None,592.2084558726856,593.2075373487096,592.6829870373949,None,1,[0.17509138736204477],[0.6752982476864418],593.1825611296299,None,[0 3 0 2 1 2 0 3],space,0,2.0633366397923965,0.0029455947696988005,None,593.3574097367382,None,1,595.42232026083,None,None,595.9218880991477,None,,,,,,,,,,,,,,,,,,,,,,,,,,,,,,,,,,,,,,,,,,,,,,20_NK,20,20,M,2022-12-12_15h17.40.434,dynamic target,2022.1.3,120.13137971723633,
0,8,1,2,T,0,103,103,103,,,,,,,None,596.9460107387749,None,595.955191488516,596.9543489736825,596.4464427400999,None,2,"[0.008658627873955993, 0.6342023177348892]","[0.10849647503710003, 1.1414244690458872]",596.9460107387749,None,[3 1 0 3 3 0 3 0],space,0,1.6900243153431802,0.0030870295013301075,None,597.5871449619408,None,1,599.2773531885032,None,None,599.7769235925309,None,,,,,,,,,,,,,,,,,,,,,,,,,,,,,,,,,,,,,,,,,,,,,,20_NK,20,20,M,2022-12-12_15h17.40.434,dynamic target,2022.1.3,120.13137971723633,
0,7,4,2,T,0,104,104,104,,,,,,,None,600.8093745249425,None,599.8269028102841,600.8260275826578,600.3098122991141,None,2,"[0.008689416383276694, 0.40823868538063834]","[0.333598991161125, 0.9084811449210974]",600.8093745249425,None,[1 0 3 0 2 2 3 2],space,0,1.579169632637786,0.0026733088598120958,None,601.2173656193663,None,1,602.7993406768219,None,None,603.2989110808496,None,,,,,,,,,,,,,,,,,,,,,,,,,,,,,,,,,,,,,,,,,,,,,,20_NK,20,20,M,2022-12-12_15h17.40.434,dynamic target,2022.1.3,120.13137971723633,
0,6,2,2,T,0,105,105,105,,,,,,,None,604.3313844632175,None,603.3572580391701,None,603.8317904867326,None,1,[0.008624952937680064],[0.5169939763582079],604.3313844632175,None,[2 1 1 0 1 2 1 0],space,0,2.3206532412805245,0.0029677240127057303,None,604.3480157124031,None,1,606.6710317936304,None,None,607.1706034805113,None,,,,,,,,,,,,,,,,,,,,,,,,,,,,,,,,,,,,,,,,,,,,,,20_NK,20,20,M,2022-12-12_15h17.40.434,dynamic target,2022.1.3,120.13137971723633,
0,5,4,2,T,0,106,106,106,,,,,,,None,608.1947302894187,None,607.2039142462927,None,607.6951545936136,None,1,[0.008484480342303868],[0.5174256569662248],608.1947302894187,None,[1 0 3 0 1 1 1 1],space,0,2.5200851932168007,0.0023907601134851575,None,608.2113830264207,None,1,610.7342258581157,None,None,611.2337978657135,None,,,,,,,,,,,,,,,,,,,,,,,,,,,,,,,,,,,,,,,,,,,,,,20_NK,20,20,M,2022-12-12_15h17.40.434,dynamic target,2022.1.3,120.13137971723633,
0,4,3,2,T,0,107,107,107,,,,,,,None,612.2662504016953,None,611.2837568785071,612.2829069872605,611.7666753473168,None,2,"[0.00962012747550034, 0.7331841800914844]","[0.35823268803505925, 1.2333801361492078]",612.2662504016953,None,[0 0 3 3 1 3 2 1],space,0,2.5328172055051255,0.002762467262073187,None,612.9989583219758,None,1,615.5301304085951,None,None,616.0296985676298,None,,,,,,,,,,,,,,,,,,,,,,,,,,,,,,,,,,,,,,,,,,,,,,20_NK,20,20,M,2022-12-12_15h17.40.434,dynamic target,2022.1.3,120.13137971723633,
0,3,3,2,T,0,108,108,108,,,,,,,None,617.0621520657478,None,616.0797085738959,617.078813782733,616.5625763699427,None,2,"[0.025224772180081345, 0.22505056051159045]","[0.03358834346727235, 0.7252660801023012]",617.0621520657478,None,[2 1 0 2 2 2 0 1],space,0,2.0212574017059524,0.0029128819805919193,None,617.2869499038825,None,1,619.3102282647524,None,None,619.80980476234,None,,,,,,,,,,,,,,,,,,,,,,,,,,,,,,,,,,,,,,,,,,,,,,20_NK,20,20,M,2022-12-12_15h17.40.434,dynamic target,2022.1.3,120.13137971723633,
0,4,4,1,T,0,109,109,109,,,,,,,None,620.8422547326118,None,619.868131194984,620.8672312724048,620.34267935752,None,2,"[0.008674022126797354, 0.37494411563966423]","[0.2839781709444651, 0.875428393293987]",620.8422547326118,None,[2 2 2 2 0 0 3 3],space,0,1.7862076301498746,0.0025212905748048797,None,621.2169397116013,None,1,623.0070746230158,None,None,623.5066414991936,None,,,,,,,,,,,,,,,,,,,,,,,,,,,,,,,,,,,,,,,,,,,,,,20_NK,20,20,M,2022-12-12_15h17.40.434,dynamic target,2022.1.3,120.13137971723633,
0,3,4,2,T,0,110,110,110,,,,,,,None,624.5391020530151,None,623.5566014741271,None,624.0395196222235,None,1,[0.00867819140694337],[0.517405452003004],624.5391020530151,None,[2 1 0 1 3 2 1 3],space,0,3.182625771511084,0.0027262266194156837,None,624.5557512621672,None,1,627.7363605283572,None,None,628.2359334980949,None,,,,,,,,,,,,,,,,,,,,,,,,,,,,,,,,,,,,,,,,,,,,,,20_NK,20,20,M,2022-12-12_15h17.40.434,dynamic target,2022.1.3,120.13137971723633,
0,2,4,2,T,0,111,111,111,,,,,,,None,629.2683809026566,None,628.2942198415294,None,628.7688408060676,None,1,[0.008691982093296247],[0.5174519554893777],629.2683809026566,None,[2 0 2 1 1 1 3 1],space,0,1.8447410834742186,0.0025719633376866113,None,629.2850429403552,None,1,631.1334592241437,None,None,631.6330296281715,None,,,,,,,,,,,,,,,,,,,,,,,,,,,,,,,,,,,,,,,,,,,,,,20_NK,20,20,M,2022-12-12_15h17.40.434,dynamic target,2022.1.3,120.13137971723633,
0,1,3,2,T,0,112,112,112,,,,,,,None,632.6654818434363,None,631.6829934516682,632.6821195068951,632.1659096754811,None,2,"[0.0077734581209369935, 0.37409101726007066]","[0.2824833244922047, 0.8744877400786208]",632.6654818434363,None,[2 0 3 3 2 3 2 2],space,0,2.1226375609476236,0.0026479724801902194,None,633.0401693881358,None,1,635.1633600017449,None,None,635.6629201429362,None,,,,,,,,,,,,,,,,,,,,,,,,,,,,,,,,,,,,,,,,,,,,,,20_NK,20,20,M,2022-12-12_15h17.40.434,dynamic target,2022.1.3,120.13137971723633,
0,8,1,2,T,0,113,113,113,,,,,,,None,636.6953707546345,None,635.7212645355467,636.7203492187109,636.195795700256,None,2,"[0.008647723607282387, 0.7672984939927119]","[0.5084668410927407, 1.2750084508043074]",636.6953707546345,None,[3 2 1 3 3 2 1 3],space,0,1.516509556422534,0.002550796230934793,None,637.4697127624167,None,1,638.985079758284,None,None,639.4846549730185,None,,,,,,,,,,,,,,,,,,,,,,,,,,,,,,,,,,,,,,,,,,,,,,20_NK,20,20,M,2022-12-12_15h17.40.434,dynamic target,2022.1.3,120.13137971723633,
0,1,1,1,T,0,114,114,114,,,,,,,None,640.5171039811466,None,639.5429939134956,640.5420846902198,640.0175388688949,None,2,"[0.008656703590531833, 0.6502190795144998]","[0.35823332946165465, 1.158444743919972]",640.5171039811466,None,[0 3 0 3 2 2 1 1],space,0,1.6991765215643682,0.0027053802259615622,None,641.1748806784744,None,1,642.8734229706679,None,None,643.3729997889689,None,,,,,,,,,,,,,,,,,,,,,,,,,,,,,,,,,,,,,,,,,,,,,,20_NK,20,20,M,2022-12-12_15h17.40.434,dynamic target,2022.1.3,120.13137971723633,
0,8,4,2,T,0,115,115,115,,,,,,,None,644.4054475142439,None,643.4229629710389,None,643.9058836848453,None,1,[0.009591263249603799],[0.5174676704591548],644.4054475142439,None,[2 1 3 0 2 3 0 1],space,0,1.220685825788678,0.0027050595163018443,None,644.4221015341027,None,1,645.6460555745471,None,None,646.1456272614316,None,,,,,,,,,,,,,,,,,,,,,,,,,,,,,,,,,,,,,,,,,,,,,,20_NK,20,20,M,2022-12-12_15h17.40.434,dynamic target,2022.1.3,120.13137971723633,
0,7,1,2,T,0,116,116,116,,,,,,,None,647.1780762695598,None,646.2039755026053,None,646.678503780895,None,1,[0.008612765814177692],[0.5174083384263213],647.1780762695598,None,[1 3 0 2 3 0 1 3],space,0,1.6956762524860096,0.0025924890105670784,None,647.1947370244052,None,1,648.8932937487116,None,None,649.3928526070497,None,,,,,,,,,,,,,,,,,,,,,,,,,,,,,,,,,,,,,,,,,,,,,,20_NK,20,20,M,2022-12-12_15h17.40.434,dynamic target,2022.1.3,120.13137971723633,
0,6,2,2,T,0,117,117,117,,,,,,,None,650.4253025773178,None,649.442841766926,None,649.9257307300795,None,1,[0.008728864166187122],[0.5172486230148934],650.4253025773178,None,[2 2 1 3 1 2 3 0],space,0,5.2959037667678786,0.0029128819733159617,None,650.4419553143234,None,1,655.7374294670444,None,None,656.2370178310387,None,,,,,,,,,,,,,,,,,,,,,,,,,,,,,,,,,,,,,,,,,,,,,,20_NK,20,20,M,2022-12-12_15h17.40.434,dynamic target,2022.1.3,120.13137971723633,
0,1,3,0,T,0,118,118,118,,,,,,,None,657.2694517656237,None,656.2786337982179,None,656.7698773526754,None,1,[0.008619180087407585],[0.5175048732417054],657.2694517656237,None,[3 3 0 2 0 2 1 1],space,0,1.235576241131639,0.002494992051651934,None,657.2861080304792,None,1,658.5267112800757,None,None,659.0262823255337,None,,,,,,,,,,,,,,,,,,,,,,,,,,,,,,,,,,,,,,,,,,,,,,20_NK,20,20,M,2022-12-12_15h17.40.434,dynamic target,2022.1.3,120.13137971723633,
0,2,3,1,T,0,119,119,119,,,,,,,None,660.0587483314885,None,659.0762445454602,None,659.5591623728433,None,1,[0.008617897234216798],[0.5172992957777751],660.0587483314885,None,[2 3 3 2 1 1 0 1],space,0,1.1177110781427473,0.0026806852765730582,None,660.0753879192271,None,1,661.1911007727285,None,space,661.6989986677545,None,2.3961450717397383,,,,,,,,,,,,,,,,,,,,,,,,,,,,,,,,,,,,,,,,,,,,,20_NK,20,20,M,2022-12-12_15h17.40.434,dynamic target,2022.1.3,120.13137971723633,
0,1,3,2,T,0,120,120,120,,,,,,,None,665.137754221716,None,664.1636085548453,None,664.6381544723845,None,1,[0.00868011568672955],[0.517424374113034],665.137754221716,None,[2 0 0 2 1 3 3 0],space,0,2.5833873382107413,0.0025228941449313425,None,665.1543806601949,None,1,667.7355170513838,None,None,668.235085851845,None,,,,,,,,,,,,,,,,,,,,,,,,,,,,,,,,,,,,,,,,,,,,,,20_NK,20,20,M,2022-12-12_15h17.40.434,dynamic target,2022.1.3,120.13137971723633,
0,8,2,2,T,0,121,121,121,,,,,,,None,669.2675476885197,None,668.2850432610685,None,668.767960126308,None,1,[0.009071065658645239],[0.5173037857675808],669.2675476885197,None,[0 3 1 3 3 3 1 1],space,0,2.004723008052679,0.0021672226757800672,None,669.2841847105519,None,1,671.2908087308533,None,None,671.7903762484577,None,,,,,,,,,,,,,,,,,,,,,,,,,,,,,,,,,,,,,,,,,,,,,,20_NK,20,20,M,2022-12-12_15h17.40.434,dynamic target,2022.1.3,120.13137971723633,
0,1,1,1,T,0,122,122,122,,,,,,,None,672.8228271808694,None,671.8486619504656,None,672.3232370529477,None,1,[0.024775131605565548],[0.5328981676357216],672.8228271808694,None,[1 1 2 3 2 1 0 2],space,0,3.521367085784732,0.0033096047955041286,None,672.8561506148399,None,1,676.3781384238719,None,None,676.8777011307732,None,,,,,,,,,,,,,,,,,,,,,,,,,,,,,,,,,,,,,,,,,,,,,,20_NK,20,20,M,2022-12-12_15h17.40.434,dynamic target,2022.1.3,120.13137971723633,
0,6,4,0,T,0,123,123,123,,,,,,,None,677.910144686768,None,676.9276518050101,None,677.4105689909629,None,1,[0.008824757554975804],[0.5175106460883399],677.910144686768,None,[0 0 0 1 1 0 0 2],space,0,2.5136212090401386,0.0023747244231344666,None,677.9268012723369,None,1,680.4413138869677,None,None,680.940887498132,None,,,,,,,,,,,,,,,,,,,,,,,,,,,,,,,,,,,,,,,,,,,,,,20_NK,20,20,M,2022-12-12_15h17.40.434,dynamic target,2022.1.3,120.13137971723633,
0,5,1,2,T,0,124,124,124,,,,,,,None,681.9733377891134,None,680.9992280421793,None,681.4737636968784,None,1,[0.008624311507446691],[0.5172159102221485],681.9733377891134,None,[1 0 3 1 1 0 3 0],space,0,3.0592036026282585,0.00282949641768937,None,681.9899902054058,None,1,685.0540376889876,None,None,685.553624128702,None,,,,,,,,,,,,,,,,,,,,,,,,,,,,,,,,,,,,,,,,,,,,,,20_NK,20,20,M,2022-12-12_15h17.40.434,dynamic target,2022.1.3,120.13137971723633,
0,4,2,2,T,0,125,125,125,,,,,,,None,686.5860599875705,None,685.6119216971128,None,686.0864948753151,None,1,[0.008498912458890118],[0.5173047479074739],686.5860599875705,None,[1 0 3 1 3 2 0 0],space,0,2.813175481172948,0.0025591347948648036,None,686.6027140074257,None,1,689.4169819816634,None,None,689.9165482164146,None,,,,,,,,,,,,,,,,,,,,,,,,,,,,,,,,,,,,,,,,,,,,,,20_NK,20,20,M,2022-12-12_15h17.40.434,dynamic target,2022.1.3,120.13137971723633,
0,3,4,2,T,0,126,126,126,,,,,,,None,690.9490004316795,None,689.9748348805624,None,690.4494285844412,None,1,[0.008633291490696138],[0.5168496551996213],690.9490004316795,None,[1 2 0 2 3 2 0 0],space,0,2.2434132005619176,0.0032727227262512315,None,690.9656669593714,None,1,693.2137306505429,None,None,693.7133020167105,None,,,,,,,,,,,,,,,,,,,,,,,,,,,,,,,,,,,,,,,,,,,,,,20_NK,20,20,M,2022-12-12_15h17.40.434,dynamic target,2022.1.3,120.13137971723633,
0,2,4,2,T,0,127,127,127,,,,,,,None,694.7457561562587,None,693.7716419193312,694.7707320546251,694.2378563369493,None,2,"[0.0077096360982977785, 0.3989213116146857]","[0.2911089188528422, 0.8992256688943598]",694.7457561562587,None,[2 1 3 2 3 2 2 2],space,0,2.0864523988311703,0.0026219946703349706,None,695.1370887408339,None,1,697.226983822562,None,None,697.7265462087464,None,,,,,,,,,,,,,,,,,,,,,,,,,,,,,,,,,,,,,,,,,,,,,,20_NK,20,20,M,2022-12-12_15h17.40.434,dynamic target,2022.1.3,120.13137971723633,
0,1,4,2,T,0,128,128,128,,,,,,,None,698.7589926511682,None,697.77650265583,None,698.2594175967897,None,1,[0.00859191942436155],[0.5171116782767058],698.7589926511682,None,[3 3 3 0 1 3 2 2],space,0,1.7280834074808809,0.0029632340265379753,None,698.7756412188901,None,1,700.5074976443575,None,None,701.0070680483852,None,,,,,,,,,,,,,,,,,,,,,,,,,,,,,,,,,,,,,,,,,,,,,,20_NK,20,20,M,2022-12-12_15h17.40.434,dynamic target,2022.1.3,120.13137971723633,
0,8,1,2,T,0,129,129,129,,,,,,,None,702.0395241122169,None,701.0736788360409,702.0728263790843,701.5399310978719,None,2,"[0.008671777133713476, 0.6423555008514086]","[0.3665750922227744, 1.1497110690470436]",702.0395241122169,None,[0 3 2 2 1 0 3 2],space,0,0.9831447503856907,0.0030408467318920884,None,702.6889648196338,None,1,703.6714586635353,None,None,704.171029067563,None,,,,,,,,,,,,,,,,,,,,,,,,,,,,,,,,,,,,,,,,,,,,,,20_NK,20,20,M,2022-12-12_15h17.40.434,dynamic target,2022.1.3,120.13137971723633,
0,7,3,2,T,0,130,130,130,,,,,,,None,705.2034819242544,None,704.220999305333,705.2201356234,704.7039091148763,None,2,"[0.008647723607282387, 0.3749749041562609]","[0.26702107666278607, 0.8837983788580459]",705.2034819242544,None,[3 2 3 0 1 1 2 1],space,0,0.9644769693477429,0.002676195279491367,None,705.5864932717486,None,1,706.5523276436579,None,None,707.0519063862423,None,,,,,,,,,,,,,,,,,,,,,,,,,,,,,,,,,,,,,,,,,,,,,,20_NK,20,20,M,2022-12-12_15h17.40.434,dynamic target,2022.1.3,120.13137971723633,
0,6,4,2,T,0,131,131,131,,,,,,,None,708.0843544322306,None,707.1018602676158,None,707.5847809814222,None,1,[0.008642592187243281],[0.5170815311903425],708.0843544322306,None,[0 0 1 3 0 0 0 0],space,0,2.8826802286930615,0.003015510352270212,None,708.101006527806,None,1,710.9818755079286,None,None,711.4814577783666,None,,,,,,,,,,,,,,,,,,,,,,,,,,,,,,,,,,,,,,,,,,,,,,20_NK,20,20,M,2022-12-12_15h17.40.434,dynamic target,2022.1.3,120.13137971723633,
0,7,4,1,T,0,132,132,132,,,,,,,None,712.5139003722215,None,711.5397954359869,None,712.0143259592696,None,1,[0.00864836503387778],[0.5174782540088927],712.5139003722215,None,[2 2 1 3 0 0 2 1],space,0,1.5085699686169391,0.0026777988532558084,None,712.5305678620534,None,1,714.0375982265832,None,None,714.5371679891844,None,,,,,,,,,,,,,,,,,,,,,,,,,,,,,,,,,,,,,,,,,,,,,,20_NK,20,20,M,2022-12-12_15h17.40.434,dynamic target,2022.1.3,120.13137971723633,
0,6,4,2,T,0,133,133,133,,,,,,,None,715.5696214873024,None,714.5954867246983,None,715.0700489986339,None,1,[0.008660231440444477],[0.5171187339765311],715.5696214873024,None,[2 2 1 3 2 0 1 3],space,0,3.188989051592216,0.0029362940731516574,None,715.5862793557244,None,1,718.7752169146952,None,None,719.2747549266435,None,,,,,,,,,,,,,,,,,,,,,,,,,,,,,,,,,,,,,,,,,,,,,,20_NK,20,20,M,2022-12-12_15h17.40.434,dynamic target,2022.1.3,120.13137971723633,
0,5,2,2,T,0,134,134,134,,,,,,,None,720.307237609708,None,719.3331326734769,720.3322163944977,719.8076670453229,None,2,"[0.008639705763926031, 0.4416179235340678]","[0.1667967695138941, 0.9417972024784831]",720.307237609708,None,[0 2 0 0 1 1 0 2],space,0,1.4660135085759975,0.002896846297517186,None,720.7485312917124,None,1,722.2139606022502,None,None,722.713513687738,None,,,,,,,,,,,,,,,,,,,,,,,,,,,,,,,,,,,,,,,,,,,,,,20_NK,20,20,M,2022-12-12_15h17.40.434,dynamic target,2022.1.3,120.13137971723633,
0,4,4,2,T,0,135,135,135,,,,,,,None,723.7459684687128,None,722.7634784733782,None,723.2463918107678,None,1,[0.007952416355692549],[0.5167537618108327],723.7459684687128,None,[2 1 2 1 1 3 3 0],space,0,1.6514443841915636,0.002568756197433686,None,723.7626237714248,None,1,725.4195364661064,None,None,725.919093400161,None,,,,,,,,,,,,,,,,,,,,,,,,,,,,,,,,,,,,,,,,,,,,,,20_NK,20,20,M,2022-12-12_15h17.40.434,dynamic target,2022.1.3,120.13137971723633,
0,5,3,1,T,0,136,136,136,,,,,,,None,726.9515587646893,None,725.9690722972009,726.9682236888111,726.4519872381607,None,2,"[0.00851783456892008, 0.6503201043233275]","[0.518144697030948, 1.1580640567844966]",726.9515587646893,None,[2 3 3 0 2 2 0 0],space,0,2.509381694933836,0.0027688815353030805,None,727.6093312927405,None,1,730.1238503216446,None,None,730.6234194428191,None,,,,,,,,,,,,,,,,,,,,,,,,,,,,,,,,,,,,,,,,,,,,,,20_NK,20,20,M,2022-12-12_15h17.40.434,dynamic target,2022.1.3,120.13137971723633,
0,4,2,2,T,0,137,137,137,,,,,,,None,731.6558711770133,None,730.6817619111462,None,731.1479718387745,None,1,[0.007656076915736776],[0.5154840563591279],731.6558711770133,None,[1 1 2 3 3 3 1 0],space,0,2.4377737071081356,0.002825327141181333,None,731.6642134208414,None,1,734.1037746075599,None,None,734.603352708714,None,,,,,,,,,,,,,,,,,,,,,,,,,,,,,,,,,,,,,,,,,,,,,,20_NK,20,20,M,2022-12-12_15h17.40.434,dynamic target,2022.1.3,120.13137971723633,
0,3,1,2,T,0,138,138,138,,,,,,,None,735.6358036411257,None,734.6616894041981,None,735.1362305110306,None,1,[0.008463313239190029],[0.5176248201569251],735.6358036411257,None,[2 3 0 1 1 3 2 3],space,0,1.52109191344789,0.0020880064002994914,None,735.6524563781277,None,1,737.1761516667793,None,None,737.6757246365207,None,,,,,,,,,,,,,,,,,,,,,,,,,,,,,,,,,,,,,,,,,,,,,,20_NK,20,20,M,2022-12-12_15h17.40.434,dynamic target,2022.1.3,120.13137971723633,
0,2,2,2,T,0,139,139,139,,,,,,,None,738.708181021062,None,737.734059728431,738.7331543537184,738.2086040424037,None,2,"[0.0089363659171795, 0.6005328337050742]","[0.4831137834407855, 1.1080580594389176]",738.708181021062,None,[3 2 2 3 2 3 3 2],space,0,2.001881484862679,0.00296098902617814,None,739.3159927723973,None,1,741.3226106991351,None,None,741.8221936109996,None,,,,,,,,,,,,,,,,,,,,,,,,,,,,,,,,,,,,,,,,,,,,,,20_NK,20,20,M,2022-12-12_15h17.40.434,dynamic target,2022.1.3,120.13137971723633,
0,1,2,2,T,0,140,140,140,,,,,,,None,742.8546352427111,None,741.8721256838398,742.8712838104366,742.3467338198352,None,2,"[0.016524772243428743, 0.08306901180912973]","[0.04976482065831078, 0.5918719608343963]",742.8546352427111,None,[1 2 0 3 0 1 1 3],space,0,1.3394246128373197,0.0024536199889553245,None,742.9378976448716,None,1,744.2784163543438,None,None,744.7779864376582,None,,,,,,,,,,,,,,,,,,,,,,,,,,,,,,,,,,,,,,,,,,,,,,20_NK,20,20,M,2022-12-12_15h17.40.434,dynamic target,2022.1.3,120.13137971723633,
0,8,3,2,T,0,141,141,141,,,,,,,None,745.8104437843431,None,744.8363269817055,None,745.310879313518,None,1,[0.008626556504168548],[0.517619688740524],745.8104437843431,None,[1 2 0 2 0 0 2 3],space,0,0.9616986267537868,0.0025219320014002733,None,745.827094276352,None,1,746.7929485325112,None,None,747.2925118808391,None,,,,,,,,,,,,,,,,,,,,,,,,,,,,,,,,,,,,,,,,,,,,,,20_NK,20,20,M,2022-12-12_15h17.40.434,dynamic target,2022.1.3,120.13137971723633,
0,1,3,1,T,0,142,142,142,,,,,,,None,748.3249560782606,None,747.3508521041695,748.3499351837672,747.8253819860256,None,2,"[0.008642271473945584, 0.35836385993025033]","[0.15009656688926043, 0.8588253669149708]",748.3249560782606,None,[0 0 1 3 1 2 1 0],space,0,1.3061351745163847,0.002582226174126845,None,748.6829847923982,None,1,749.9902079699896,None,None,750.489772280461,None,,,,,,,,,,,,,,,,,,,,,,,,,,,,,,,,,,,,,,,,,,,,,,20_NK,20,20,M,2022-12-12_15h17.40.434,dynamic target,2022.1.3,120.13137971723633,
0,8,2,2,T,0,143,143,143,,,,,,,None,751.5222225714424,None,750.539736424671,None,751.0226523277706,None,1,[0.00863874362403294],[0.5172675451212854],751.5222225714424,None,[3 2 3 2 0 0 2 0],space,0,0.706560633279878,0.0027294337523926515,None,751.5388890991344,None,1,752.2465742968525,None,None,752.7461892800795,None,,,,,,,,,,,,,,,,,,,,,,,,,,,,,,,,,,,,,,,,,,,,,,20_NK,20,20,M,2022-12-12_15h17.40.434,dynamic target,2022.1.3,120.13137971723633,
0,7,2,2,T,0,144,144,144,,,,,,,None,753.7786288271575,None,752.7961364264665,None,753.2707407138951,None,1,[0.008691340666700853],[0.5165119437006069],753.7786288271575,None,[1 1 1 2 1 2 1 3],space,0,0.9380902515076741,0.003148285821225727,None,753.7869559974424,None,1,754.7278173574086,None,None,755.2273874407231,None,,,,,,,,,,,,,,,,,,,,,,,,,,,,,,,,,,,,,,,,,,,,,,20_NK,20,20,M,2022-12-12_15h17.40.434,dynamic target,2022.1.3,120.13137971723633,
0,7,1,0,T,0,145,145,145,,,,,,,None,756.2598431838414,None,755.27735190565,None,755.7602681294629,None,1,[0.00866856999709853],[0.5170885868938058],756.2598431838414,None,[1 1 0 2 0 0 0 3],space,0,1.184665189790394,0.002991777546412777,None,756.2764927137068,None,1,757.458813628793,None,None,757.9583901263807,None,,,,,,,,,,,,,,,,,,,,,,,,,,,,,,,,,,,,,,,,,,,,,,20_NK,20,20,M,2022-12-12_15h17.40.434,dynamic target,2022.1.3,120.13137971723633,
0,2,4,0,T,0,146,146,146,,,,,,,None,758.9908420209322,None,758.0083517048806,None,758.4912663251271,None,1,[0.008643233613838675],[0.5171296382395667],758.9908420209322,None,[0 2 3 2 0 1 3 3],space,0,1.9734155802580062,0.002939821923064301,None,759.0074995686409,None,1,760.9808023999649,None,None,761.4803769732691,None,,,,,,,,,,,,,,,,,,,,,,,,,,,,,,,,,,,,,,,,,,,,,,20_NK,20,20,M,2022-12-12_15h17.40.434,dynamic target,2022.1.3,120.13137971723633,
0,1,1,2,T,0,147,147,147,,,,,,,None,762.5128410549441,None,761.5387287422964,762.5378195190206,762.0132618312891,None,1,[0.08319344871779322],[0.5832059565509553],762.5128410549441,None,[2 1 0 2 1 2 3 2],space,0,0.6245304130716249,0.002959706172987353,None,762.5960925528343,None,1,763.2205666625814,None,None,763.7201284073428,None,,,,,,,,,,,,,,,,,,,,,,,,,,,,,,,,,,,,,,,,,,,,,,20_NK,20,20,M,2022-12-12_15h17.40.434,dynamic target,2022.1.3,120.13137971723633,
0,2,4,1,T,0,148,148,148,,,,,,,None,764.7525841504576,None,763.7700935136927,764.7692311146129,764.253009416796,None,2,"[0.00869069924010546, 0.3332442818355048]","[0.1251713412857498, 0.8335595433818526]",764.7525841504576,None,[0 2 3 0 1 2 0 3],space,0,0.6944710104835394,0.002757015128736384,None,765.0856344005188,None,1,765.7850323568018,None,None,766.2846005158365,None,,,,,,,,,,,,,,,,,,,,,,,,,,,,,,,,,,,,,,,,,,,,,,20_NK,20,20,M,2022-12-12_15h17.40.434,dynamic target,2022.1.3,120.13137971723633,
0,4,3,0,T,0,149,149,149,,,,,,,None,767.3170530518146,None,766.3429372113169,None,766.8174799217195,None,1,[0.008594164421083406],[0.5173746634900454],767.3170530518146,None,[3 1 3 2 1 3 1 2],space,0,3.0222067141912703,0.002633540367241949,None,767.33371893808,None,1,770.3561249577469,None,None,770.8556969653412,None,,,,,,,,,,,,,,,,,,,,,,,,,,,,,,,,,,,,,,,,,,,,,,20_NK,20,20,M,2022-12-12_15h17.40.434,dynamic target,2022.1.3,120.13137971723633,
0,8,3,0,T,0,150,150,150,,,,,,,None,771.8881555948828,None,770.9056579024182,None,771.3885798990777,None,1,[0.008717639189853799],[0.5173746634900454],771.8881555948828,None,[3 3 0 1 2 3 1 1],space,0,1.6669800754571042,0.0026970416729454882,None,771.9048051247482,None,1,773.5700422636473,None,None,774.0696328726383,None,,,,,,,,,,,,,,,,,,,,,,,,,,,,,,,,,,,,,,,,,,,,,,20_NK,20,20,M,2022-12-12_15h17.40.434,dynamic target,2022.1.3,120.13137971723633,
0,7,2,2,T,0,151,151,151,,,,,,,None,775.1020842861192,None,774.1195851504417,None,774.6025193342248,None,1,[0.008682681396749103],[0.5088446418048989],775.1020842861192,None,[0 0 0 1 3 0 2 2],space,0,1.164807881716115,0.002413530779449502,None,775.1104069664143,None,1,776.2760655230886,None,None,776.7756346442595,None,,,,,,,,,,,,,,,,,,,,,,,,,,,,,,,,,,,,,,,,,,,,,,20_NK,20,20,M,2022-12-12_15h17.40.434,dynamic target,2022.1.3,120.13137971723633,
0,6,2,2,T,0,152,152,152,,,,,,,None,777.8080862180977,None,776.8255955813365,777.8247434450932,777.3085175779961,None,1,[0.10845798939408269],[0.6173593975217955],777.8080862180977,None,[2 0 1 2 1 2 1 2],space,0,1.1190593584433373,0.0025392505413037725,None,777.9246659606688,None,1,779.0487035791011,None,None,779.5482659652855,None,,,,,,,,,,,,,,,,,,,,,,,,,,,,,,,,,,,,,,,,,,,,,,20_NK,20,20,M,2022-12-12_15h17.40.434,dynamic target,2022.1.3,120.13137971723633,
0,3,1,0,T,0,153,153,153,,,,,,,None,780.5807239534006,None,779.606612923606,None,780.0811444090286,None,1,[0.008660231436806498],[0.5175677331244515],780.5807239534006,None,[3 2 0 3 0 2 2 1],space,0,0.718327297403448,0.0024872949288692325,None,780.5973696346991,None,1,781.3134594550575,None,None,781.8129968255755,None,,,,,,,,,,,,,,,,,,,,,,,,,,,,,,,,,,,,,,,,,,,,,,20_NK,20,20,M,2022-12-12_15h17.40.434,dynamic target,2022.1.3,120.13137971723633,
0,2,4,2,T,0,154,154,154,,,,,,,None,782.8454580208236,None,781.862976364042,782.8621123613957,782.3458759107452,None,2,"[0.34990920595737407, 0.8341063602019858]","[0.6004959516321833, 1.3414872647808807]",782.8454580208236,None,[1 2 0 1 0 1 3 2],space,0,1.3574779064692848,0.002860605643945746,None,783.6863984687843,None,1,785.0435676702655,None,None,785.5431399985766,None,,,,,,,,,,,,,,,,,,,,,,,,,,,,,,,,,,,,,,,,,,,,,,20_NK,20,20,M,2022-12-12_15h17.40.434,dynamic target,2022.1.3,120.13137971723633,
0,1,3,2,T,0,155,155,155,,,,,,,None,786.575592855268,None,785.6014901640337,None,786.0760216494564,None,1,[0.00864163004735019],[0.5173342535672418],786.575592855268,None,[0 0 3 3 3 0 1 2],space,0,1.2827529024143587,0.0026697810062614735,None,786.5922436679903,None,1,787.8744810050921,None,None,788.3740520505464,None,,,,,,,,,,,,,,,,,,,,,,,,,,,,,,,,,,,,,,,,,,,,,,20_NK,20,20,M,2022-12-12_15h17.40.434,dynamic target,2022.1.3,120.13137971723633,
0,8,2,2,T,0,156,156,156,,,,,,,None,789.4065135665078,None,788.4240123461932,None,788.9069314564294,None,1,[0.008626556504168548],[0.5171376560829231],789.4065135665078,None,[3 1 2 2 0 3 2 2],space,0,0.7566237176615687,0.002510386308131274,None,789.4231698313633,None,1,790.1808427457436,None,None,790.6804176397648,None,,,,,,,,,,,,,,,,,,,,,,,,,,,,,,,,,,,,,,,,,,,,,,20_NK,20,20,M,2022-12-12_15h17.40.434,dynamic target,2022.1.3,120.13137971723633,
0,7,3,2,T,0,157,157,157,,,,,,,None,791.712866647893,None,790.7304404745773,None,791.2133031392077,None,1,[0.00865413788051228],[0.5170857004668505],791.712866647893,None,[1 3 1 0 2 1 2 0],space,0,0.6580668009264627,0.002944311920145992,None,791.7295187434684,None,1,792.3872909508063,None,None,792.8868655241142,None,,,,,,,,,,,,,,,,,,,,,,,,,,,,,,,,,,,,,,,,,,,,,,20_NK,20,20,M,2022-12-12_15h17.40.434,dynamic target,2022.1.3,120.13137971723633,
0,6,4,2,T,0,158,158,158,,,,,,,None,793.919317739379,None,792.9452095960114,None,793.4197417228606,None,1,[0.008540605238522403],[0.5170440076872183],793.919317739379,None,[2 0 1 3 3 1 3 2],space,0,1.3791392289786017,0.002690627396077616,None,793.935974004231,None,1,795.3181232733587,None,None,795.8177090716429,None,,,,,,,,,,,,,,,,,,,,,,,,,,,,,,,,,,,,,,,,,,,,,,20_NK,20,20,M,2022-12-12_15h17.40.434,dynamic target,2022.1.3,120.13137971723633,
0,5,4,2,T,0,159,159,159,,,,,,,None,796.8501439683714,None,795.867654935173,None,796.3505695554195,None,1,[0.007823489457223332],[0.5165145094106265],796.8501439683714,None,[2 2 1 0 1 1 3 3],space,0,2.04699659862672,0.0025822261777648237,None,796.8667979882266,None,1,798.9150435881966,None,None,799.4146143129376,None,,,,,,,,,,,,,,,,,,,,,,,,,,,,,,,,,,,,,,,,,,,,,,20_NK,20,20,M,2022-12-12_15h17.40.434,dynamic target,2022.1.3,120.13137971723633,
0,4,4,2,T,0,160,160,160,,,,,,,None,800.4470902610155,None,799.4645842299942,800.4637279244744,799.9475164894939,None,2,"[0.008745861989154946, 0.5428659487370169]","[0.30838191610746435, 1.0501143985675299]",800.4470902610155,None,[0 2 2 1 0 0 1 3],space,0,1.5496177915119915,0.0026502174769120757,None,800.9966238471134,None,1,802.5452735463186,None,None,803.0448455539129,None,,,,,,,,,,,,,,,,,,,,,,,,,,,,,,,,,,,,,,,,,,,,,,20_NK,20,20,M,2022-12-12_15h17.40.434,dynamic target,2022.1.3,120.13137971723633,
0,3,1,2,T,0,161,161,161,,,,,,,None,804.0772964863245,None,803.0948135466897,None,803.5777233562294,None,1,[0.009471957757341443],[0.51767004078647],804.0772964863245,None,[2 2 3 3 2 3 3 0],space,0,0.836768782872241,0.0024696556720300578,None,804.0939530718933,None,1,804.9349024998337,None,None,805.4344706588683,None,,,,,,,,,,,,,,,,,,,,,,,,,,,,,,,,,,,,,,,,,,,,,,20_NK,20,20,M,2022-12-12_15h17.40.434,dynamic target,2022.1.3,120.13137971723633,
0,6,1,0,T,0,162,162,162,,,,,,,None,806.4669209498497,None,805.4927598887261,806.4919010174963,805.9673487818982,None,2,"[0.008631367207271978, 0.3165758298600849]","[0.2087044257823436, 0.8166803825188254]",806.4669209498497,None,[1 2 0 2 3 0 3 0],space,0,1.2190226046586758,0.002954254043288529,None,806.7833322535953,None,1,808.0072708997868,None,None,808.5068413038146,None,,,,,,,,,,,,,,,,,,,,,,,,,,,,,,,,,,,,,,,,,,,,,,20_NK,20,20,M,2022-12-12_15h17.40.434,dynamic target,2022.1.3,120.13137971723633,
0,5,4,2,T,0,163,163,163,,,,,,,None,809.5392973676462,None,808.5568022408916,None,809.0397219925544,None,1,[0.008639385050628334],[0.5170238027276355],809.5392973676462,None,[2 1 0 1 0 0 1 1],space,0,1.7109428649710026,0.003120063011010643,None,809.5559485010817,None,1,811.2711470581271,None,None,811.7707197071479,None,,,,,,,,,,,,,,,,,,,,,,,,,,,,,,,,,,,,,,,,,,,,,,20_NK,20,20,M,2022-12-12_15h17.40.434,dynamic target,2022.1.3,120.13137971723633,
0,4,3,2,T,0,164,164,164,,,,,,,None,812.8031757709796,None,811.8290807768717,None,812.3036061687344,None,1,[0.008666325000376673],[0.5171392596494115],812.8031757709796,None,[0 1 0 3 0 1 0 3],space,0,1.3902465057799418,0.002940463356935652,None,812.819822735135,None,0,814.2186090262949,None,None,814.7181999559991,None,,,,,,,,,,,,,,,,,,,,,,,,,,,,,,,,,,,,,,,,,,,,,,20_NK,20,20,M,2022-12-12_15h17.40.434,dynamic target,2022.1.3,120.13137971723633,
0,3,1,2,T,0,165,165,165,,,,,,,None,815.7506508884071,None,814.7598402974181,815.7589833504717,815.2510783997423,None,2,"[0.009018789329275023, 0.6171650450305606]","[0.4081177763255255, 1.1248422890494112]",815.7506508884071,None,[3 1 1 2 0 0 0 1],space,0,2.4758440242258075,0.0030257731887104455,None,816.3751179424544,None,1,818.8563308559278,None,None,819.3559019013821,None,,,,,,,,,,,,,,,,,,,,,,,,,,,,,,,,,,,,,,,,,,,,,,20_NK,20,20,M,2022-12-12_15h17.40.434,dynamic target,2022.1.3,120.13137971723633,
0,2,3,2,T,0,166,166,166,,,,,,,None,820.3883454573806,None,819.4141991490833,820.4133309771569,819.8887809865519,None,2,"[0.008663438577059424, 0.7504318409664847]","[0.20010769565124065, 1.2579217881939257]",820.3883454573806,None,[1 2 2 2 3 2 3 1],space,0,1.4477998581023712,0.003084784504608251,None,821.1460398595773,None,1,822.5948148295429,None,None,823.0943717635976,None,,,,,,,,,,,,,,,,,,,,,,,,,,,,,,,,,,,,,,,,,,,,,,20_NK,20,20,M,2022-12-12_15h17.40.434,dynamic target,2022.1.3,120.13137971723633,
0,3,1,1,T,0,167,167,167,,,,,,,None,824.1268345624158,None,823.144331738531,None,823.627253093764,None,1,[0.008709621346497443],[0.5174830647119961],824.1268345624158,None,[0 2 3 1 2 2 0 0],space,0,0.9939374070672784,0.002416096493107034,None,824.1434776780079,None,1,825.1342978904104,None,None,825.633869256578,None,,,,,,,,,,,,,,,,,,,,,,,,,,,,,,,,,,,,,,,,,,,,,,20_NK,20,20,M,2022-12-12_15h17.40.434,dynamic target,2022.1.3,120.13137971723633,
0,2,2,2,T,0,168,168,168,,,,,,,None,826.6663343003929,None,825.6838301936514,None,826.166759887441,None,1,[0.008615972950792639],[0.5174917239819479],826.6663343003929,None,[3 3 3 0 1 0 3 3],space,0,2.0375599193757807,0.0026912688263109885,None,826.6829777366984,None,1,828.7228972888806,None,None,829.2224664100515,None,,,,,,,,,,,,,,,,,,,,,,,,,,,,,,,,,,,,,,,,,,,,,,20_NK,20,20,M,2022-12-12_15h17.40.434,dynamic target,2022.1.3,120.13137971723633,
0,1,1,2,T,0,169,169,169,,,,,,,None,830.2549199081732,None,829.2807841834292,830.2799047865228,829.7553474195047,None,1,[0.07472307977513992],[0.5748609866568586],830.2549199081732,None,[2 2 0 0 2 2 2 1],space,0,2.551641815534822,0.003012623928952962,None,830.3298556211157,None,1,832.8776762754605,None,None,833.3772566216151,None,,,,,,,,,,,,,,,,,,,,,,,,,,,,,,,,,,,,,,,,,,,,,,20_NK,20,20,M,2022-12-12_15h17.40.434,dynamic target,2022.1.3,120.13137971723633,
0,1,4,0,T,0,170,170,170,,,,,,,None,834.4097001776099,None,833.4272066544254,834.4263529146119,833.9018009997271,None,2,"[0.008394680517085362, 0.24985038707018248]","[0.16723454368548119, 0.7581549470414757]",834.4097001776099,None,[0 1 2 0 1 3 3 2],space,0,1.3743689337352407,0.0029997953824931756,None,834.659496043354,None,1,836.0333128504208,None,None,836.5328871030117,None,,,,,,,,,,,,,,,,,,,,,,,,,,,,,,,,,,,,,,,,,,,,,,20_NK,20,20,M,2022-12-12_15h17.40.434,dynamic target,2022.1.3,120.13137971723633,
0,2,3,1,T,0,171,171,171,,,,,,,None,837.5653364318532,None,836.5828528507918,None,837.0657620189049,None,1,[0.008684605680173263],[0.5173919820299488],837.5653364318532,None,[0 0 3 3 1 0 2 3],space,0,1.2190389610550483,0.0027964629080088343,None,837.5819923759955,None,0,838.8059621314133,None,None,839.3055164997579,None,,,,,,,,,,,,,,,,,,,,,,,,,,,,,,,,,,,,,,,,,,,,,,20_NK,20,20,M,2022-12-12_15h17.40.434,dynamic target,2022.1.3,120.13137971723633,
0,1,4,2,T,0,172,172,172,,,,,,,None,840.3379866749892,None,839.3638631373615,None,839.8383926985043,None,1,[0.008724053459445713],[0.5171017361499253],840.3379866749892,None,[1 2 0 3 1 0 3 0],space,0,1.0066668536492216,0.002916089113568887,None,840.3546176034615,None,1,841.3704162799404,None,None,841.8699744968483,None,,,,,,,,,,,,,,,,,,,,,,,,,,,,,,,,,,,,,,,,,,,,,,20_NK,20,20,M,2022-12-12_15h17.40.434,dynamic target,2022.1.3,120.13137971723633,
0,2,2,1,T,0,173,173,173,,,,,,,None,842.9024408235164,None,841.919952111035,None,842.4028667312814,None,1,[0.008604106544225942],[0.5172412466017704],842.9024408235164,None,[2 3 2 0 0 3 0 2],space,0,1.8339468232225045,0.0028529085175250657,None,842.9190932398051,None,1,844.7508715394179,None,None,845.2504352084591,None,,,,,,,,,,,,,,,,,,,,,,,,,,,,,,,,,,,,,,,,,,,,,,20_NK,20,20,M,2022-12-12_15h17.40.434,dynamic target,2022.1.3,120.13137971723633,
0,1,3,2,T,0,174,174,174,,,,,,,None,846.282883895874,None,845.3087661310965,None,845.7833094829257,None,1,[0.009354255838843528],[0.5175555460045871],846.282883895874,None,[0 1 1 1 2 3 3 2],space,0,1.2039683046241407,0.0025055756050278433,None,846.2995478578559,None,1,847.5068472370185,None,None,848.0064089817799,None,,,,,,,,,,,,,,,,,,,,,,,,,,,,,,,,,,,,,,,,,,,,,,20_NK,20,20,M,2022-12-12_15h17.40.434,dynamic target,2022.1.3,120.13137971723633,
0,8,1,2,T,0,175,175,175,,,,,,,None,849.0388602349049,None,848.064742790837,849.0638374161244,848.5392877462364,None,3,"[0.008609237964265049, 0.3832156421012769, 0.9587706531565345]","[0.14240938074726728, 0.7334263189186458, 1.4660989606927615]",849.0388602349049,None,[0 2 0 1 3 1 1 2],space,0,1.0035661938163685,0.0030626552616013214,None,850.0047148117774,None,1,851.0121746119185,None,None,851.5117703523294,None,,,,,,,,,,,,,,,,,,,,,,,,,,,,,,,,,,,,,,,,,,,,,,20_NK,20,20,M,2022-12-12_15h17.40.434,dynamic target,2022.1.3,120.13137971723633,
0,7,3,2,T,0,176,176,176,,,,,,,None,852.544196589788,None,851.5700842771403,None,852.0446224975494,None,1,[0.008613727957708761],[0.5175260403484572],852.544196589788,None,[2 1 1 3 2 1 2 2],space,0,2.0307652793962916,0.0020908928199787624,None,852.56084932679,None,1,854.5924498868844,None,None,855.0920193287723,None,,,,,,,,,,,,,,,,,,,,,,,,,,,,,,,,,,,,,,,,,,,,,,20_NK,20,20,M,2022-12-12_15h17.40.434,dynamic target,2022.1.3,120.13137971723633,
0,4,1,0,T,0,177,177,177,,,,,,,None,856.1244686576138,None,855.1419767379957,None,855.6248971310888,None,1,[0.008672097847011173],[0.5174458619294455],856.1244686576138,None,[1 0 0 1 1 2 1 0],space,0,1.8102181803478743,0.0020552936002786737,None,856.1411268467491,None,1,857.9562459950866,None,None,858.4558080605614,None,,,,,,,,,,,,,,,,,,,,,,,,,,,,,,,,,,,,,,,,,,,,,,20_NK,20,20,M,2022-12-12_15h17.40.434,dynamic target,2022.1.3,120.13137971723633,
0,3,3,2,T,0,178,178,178,,,,,,,None,859.4882615586794,None,858.4974464776969,None,858.9887009364211,None,1,[0.009365801532112528],[0.5175645259878365],859.4882615586794,None,[3 2 1 3 3 0 0 2],space,0,1.1352634170107194,0.002436942875647219,None,859.5049130128282,None,1,860.6456024061226,None,None,861.1451753758604,None,,,,,,,,,,,,,,,,,,,,,,,,,,,,,,,,,,,,,,,,,,,,,,20_NK,20,20,M,2022-12-12_15h17.40.434,dynamic target,2022.1.3,120.13137971723633,
0,2,2,2,T,0,179,179,179,,,,,,,None,862.1776272704119,None,861.2035242584607,None,861.6780554231736,None,1,[0.009466826337302336],[0.5174198841195903],862.1776272704119,None,[1 0 3 2 2 0 0 3],space,0,2.8455233041349857,0.0024398292989644688,None,862.1942835352638,None,1,865.041848003526,None,space,865.5497346735756,None,2.343380936767062,,,,,,,,,,,,,,,,,,,,,,,,,,,,,,,,,,,,,,,,,,,,,20_NK,20,20,M,2022-12-12_15h17.40.434,dynamic target,2022.1.3,120.13137971723633,
0,3,2,1,T,0,180,180,180,,,,,,,None,868.9384896823212,None,867.9560234197961,868.9551793013961,868.4389502271624,None,1,[0.09150121582570137],[0.5918033281086537],868.9384896823212,None,[3 1 3 3 2 3 1 1],space,0,1.8016362030466553,0.0027967836285824887,None,869.0301041100756,None,1,870.836892720632,None,None,871.3364823674831,None,,,,,,,,,,,,,,,,,,,,,,,,,,,,,,,,,,,,,,,,,,,,,,20_NK,20,20,M,2022-12-12_15h17.40.434,dynamic target,2022.1.3,120.13137971723633,
0,2,4,2,T,0,181,181,181,,,,,,,None,872.3605892921405,None,871.3948104036936,None,871.8610161620454,None,1,[0.008738164862734266],[0.5171331660894793],872.3605892921405,None,[0 1 2 1 3 2 2 1],space,0,1.5738201284912066,0.0028946013007953297,None,872.3772436327126,None,1,873.9508952080869,None,None,874.450478761378,None,,,,,,,,,,,,,,,,,,,,,,,,,,,,,,,,,,,,,,,,,,,,,,20_NK,20,20,M,2022-12-12_15h17.40.434,dynamic target,2022.1.3,120.13137971723633,
0,1,3,2,T,0,182,182,182,,,,,,,None,875.4829197516665,None,874.5004435470146,None,874.983347262998,None,1,[0.008671135703480104],[0.5173775499133626],875.4829197516665,None,[1 1 2 1 1 1 1 1],space,0,1.7310759868087189,0.0026691395869420376,None,875.4995769786583,None,1,877.2314244241425,None,None,877.7310066945768,None,,,,,,,,,,,,,,,,,,,,,,,,,,,,,,,,,,,,,,,,,,,,,,20_NK,20,20,M,2022-12-12_15h17.40.434,dynamic target,2022.1.3,120.13137971723633,
0,8,3,2,T,0,183,183,183,,,,,,,None,878.7717631490996,None,877.789342107204,None,878.272210544681,None,1,[0.008774405509029748],[0.5178441883144842],878.7717631490996,None,[2 0 2 0 3 0 0 3],space,0,0.9386829303875857,0.0023529158934252337,None,878.7884370532047,None,1,879.7292903953312,None,None,880.2288630443556,None,,,,,,,,,,,,,,,,,,,,,,,,,,,,,,,,,,,,,,,,,,,,,,20_NK,20,20,M,2022-12-12_15h17.40.434,dynamic target,2022.1.3,120.13137971723633,
0,7,2,2,T,0,184,184,184,,,,,,,None,881.261313656054,None,880.2871987776962,None,880.7617418088121,None,1,[0.008702565643034177],[0.5173310464306269],881.261313656054,None,[2 1 3 3 1 1 0 3],space,0,0.9609988295123912,0.002575170474301558,None,881.2779676759092,None,1,882.2438074999518,None,None,882.7433782246965,None,,,,,,,,,,,,,,,,,,,,,,,,,,,,,,,,,,,,,,,,,,,,,,20_NK,20,20,M,2022-12-12_15h17.40.434,dynamic target,2022.1.3,120.13137971723633,
0,6,3,2,T,0,185,185,185,,,,,,,None,883.7758291571081,None,882.8017283901536,None,883.2762563477263,None,1,[0.008640026480861707],[0.5171100747102173],883.7758291571081,None,[0 0 0 2 1 2 1 0],space,0,1.1984600472096645,0.0028679820643446874,None,883.7924825355367,None,1,884.9914654883214,None,None,885.4910407030559,None,,,,,,,,,,,,,,,,,,,,,,,,,,,,,,,,,,,,,,,,,,,,,,20_NK,20,20,M,2022-12-12_15h17.40.434,dynamic target,2022.1.3,120.13137971723633,
0,5,4,2,T,0,186,186,186,,,,,,,None,886.5234800897742,None,885.5409878494429,None,886.0239015075458,None,1,[0.008626235787232872],[0.5175395103215124],886.5234800897742,None,[0 0 3 2 2 1 3 3],space,0,2.5933612128756067,0.001994358008232666,None,886.5401385996229,None,1,889.1379171442641,None,None,889.6374843411552,None,,,,,,,,,,,,,,,,,,,,,,,,,,,,,,,,,,,,,,,,,,,,,,20_NK,20,20,M,2022-12-12_15h17.40.434,dynamic target,2022.1.3,120.13137971723633,
0,4,4,2,T,0,187,187,187,,,,,,,None,890.6699368771333,None,889.6958239230589,None,890.1703736891614,None,1,[0.008615331524197245],[0.5171809524290438],890.6699368771333,None,[2 0 3 2 3 2 1 3],space,0,1.552095304676186,0.002936935499747051,None,890.6865873691422,None,1,892.2435897353644,None,None,892.7431662329557,None,,,,,,,,,,,,,,,,,,,,,,,,,,,,,,,,,,,,,,,,,,,,,,20_NK,20,20,M,2022-12-12_15h17.40.434,dynamic target,2022.1.3,120.13137971723633,
0,3,4,2,T,0,188,188,188,,,,,,,None,893.7756548492227,None,892.793113379339,None,893.2677353060208,None,1,[0.009303583079599775],[0.5165571643265139],893.7756548492227,None,[3 1 2 2 3 0 0 0],space,0,2.0699446244070714,0.0028474563841882627,None,893.7839473824315,None,1,895.8571682393413,None,None,896.3567399262222,None,,,,,,,,,,,,,,,,,,,,,,,,,,,,,,,,,,,,,,,,,,,,,,20_NK,20,20,M,2022-12-12_15h17.40.434,dynamic target,2022.1.3,120.13137971723633,
0,2,2,2,T,0,189,189,189,,,,,,,None,897.3891927829172,None,896.4150737352829,897.4141683605703,896.8896196528221,None,2,"[0.008606672257883474, 0.7499834832451597]","[0.49145009406493045, 1.2584952242541476]",897.3891927829172,None,[1 0 0 3 1 0 3 2],space,0,0.9394856767212332,0.0025584933609934524,None,898.1468769222774,None,1,899.0877392443872,None,None,899.587312214125,None,,,,,,,,,,,,,,,,,,,,,,,,,,,,,,,,,,,,,,,,,,,,,,20_NK,20,20,M,2022-12-12_15h17.40.434,dynamic target,2022.1.3,120.13137971723633,
0,1,4,2,T,0,190,190,190,,,,,,,None,900.6197666743865,None,899.637281489755,900.6364171663918,900.1118620443704,None,2,"[0.008990887239633594, 0.2582803460863943]","[0.15002087846005452, 0.7584849614140694]",900.6197666743865,None,[1 2 3 2 3 1 2 3],space,0,1.1766823056350404,0.002663687449967256,None,900.8695538808606,None,1,902.0435535588622,None,None,902.5431396778633,None,,,,,,,,,,,,,,,,,,,,,,,,,,,,,,,,,,,,,,,,,,,,,,20_NK,20,20,M,2022-12-12_15h17.40.434,dynamic target,2022.1.3,120.13137971723633,
0,8,4,2,T,0,191,191,191,,,,,,,None,903.575568160315,None,902.6014654690771,None,903.0760120280465,None,1,[0.00868396425357787],[0.5173304050040315],903.575568160315,None,[1 0 0 1 3 1 0 2],space,0,0.9167166091719992,0.0028432871076802257,None,903.5922273115902,None,1,904.5081050760637,None,None,905.0076774043748,None,,,,,,,,,,,,,,,,,,,,,,,,,,,,,,,,,,,,,,,,,,,,,,20_NK,20,20,M,2022-12-12_15h17.40.434,dynamic target,2022.1.3,120.13137971723633,
0,3,4,0,T,0,192,192,192,,,,,,,None,906.0401337889161,None,905.0660147412818,None,905.540580543071,None,1,[0.00869743422663305],[0.5174121869931696],906.0401337889161,None,[0 3 3 0 1 1 1 2],space,0,1.6205882005451713,0.0028031978981744032,None,906.0567807530751,None,1,907.6803735416361,None,None,908.1799641506234,None,,,,,,,,,,,,,,,,,,,,,,,,,,,,,,,,,,,,,,,,,,,,,,20_NK,20,20,M,2022-12-12_15h17.40.434,dynamic target,2022.1.3,120.13137971723633,
0,2,2,2,T,0,193,193,193,,,,,,,None,909.2124224594518,None,908.2383325967603,None,908.712869213603,None,1,[0.008627839360997314],[0.5175449624548492],909.2124224594518,None,[3 2 0 2 3 3 3 1],space,0,1.295487480416341,0.002225913278380176,None,909.2290716686039,None,0,910.5362826590754,None,None,911.0358694195031,None,,,,,,,,,,,,,,,,,,,,,,,,,,,,,,,,,,,,,,,,,,,,,,20_NK,20,20,M,2022-12-12_15h17.40.434,dynamic target,2022.1.3,120.13137971723633,
0,1,1,2,T,0,194,194,194,,,,,,,None,912.0683107305013,None,911.0941945692903,912.0932863081543,911.5687449768229,None,2,"[0.008690378526807763, 0.6594691034079005]","[0.5081175838968193, 1.1666909340019629]",912.0683107305013,None,[0 1 1 1 0 3 2 2],space,0,2.543035463990236,0.0026450860568729695,None,912.7344064199169,None,1,915.2822257914086,None,None,915.7817907433066,None,,,,,,,,,,,,,,,,,,,,,,,,,,,,,,,,,,,,,,,,,,,,,,20_NK,20,20,M,2022-12-12_15h17.40.434,dynamic target,2022.1.3,120.13137971723633,
0,8,1,2,T,0,195,195,195,,,,,,,None,916.814248731418,None,915.8234654010885,None,916.3146794498862,None,1,[0.008647082177049015],[0.5173656835067959],916.814248731418,None,[2 1 2 2 3 0 2 1],space,0,2.4779010817546805,0.0027470730055938475,None,916.8309033926998,None,1,919.3121153440334,None,None,919.8116921623343,None,,,,,,,,,,,,,,,,,,,,,,,,,,,,,,,,,,,,,,,,,,,,,,20_NK,20,20,M,2022-12-12_15h17.40.434,dynamic target,2022.1.3,120.13137971723633,
0,7,2,2,T,0,196,196,196,,,,,,,None,920.8441373218993,None,919.8700487420647,None,920.3445802274873,None,1,[0.0085351531051856],[0.5176562501001172],920.8441373218993,None,[1 1 2 2 3 2 2 2],space,0,2.207355682487105,0.0022711339079251047,None,920.8607935867512,None,1,923.0672385846774,None,None,923.5668089887051,None,,,,,,,,,,,,,,,,,,,,,,,,,,,,,,,,,,,,,,,,,,,,,,20_NK,20,20,M,2022-12-12_15h17.40.434,dynamic target,2022.1.3,120.13137971723633,
0,8,1,1,T,0,197,197,197,,,,,,,None,924.5992878232064,None,923.6251601163021,None,924.0997111652614,None,1,[0.0086522136007261],[0.5172159102221485],924.5992878232064,None,[1 2 0 0 2 2 0 3],space,0,2.692878667076002,0.0029892118291172665,None,924.6159177895388,None,1,927.3136076247756,None,None,927.81317867023,None,,,,,,,,,,,,,,,,,,,,,,,,,,,,,,,,,,,,,,,,,,,,,,20_NK,20,20,M,2022-12-12_15h17.40.434,dynamic target,2022.1.3,120.13137971723633,
0,7,1,2,T,0,198,198,198,,,,,,,None,928.8456296026416,None,927.8631389658767,None,928.346063207533,None,1,[0.008681398543558316],[0.5174301469596685],928.8456296026416,None,[1 0 2 0 1 1 3 1],space,0,3.0538431942186435,0.0024831256487232167,None,928.8623031860334,None,1,931.9180044168679,None,None,932.4175761037525,None,,,,,,,,,,,,,,,,,,,,,,,,,,,,,,,,,,,,,,,,,,,,,,20_NK,20,20,M,2022-12-12_15h17.40.434,dynamic target,2022.1.3,120.13137971723633,
0,6,3,2,T,0,199,199,199,,,,,,,None,933.4500318468672,None,932.4759137613764,None,932.950453906069,None,1,[0.008632970777398441],[0.5174189219796972],933.4500318468672,None,[0 3 0 3 0 1 3 0],space,0,2.481333038820594,0.0025652283475210425,None,933.4666800938794,None,1,935.9479122501725,None,None,936.4474704670804,None,,,,,,,,,,,,,,,,,,,,,,,,,,,,,,,,,,,,,,,,,,,,,,20_NK,20,20,M,2022-12-12_15h17.40.434,dynamic target,2022.1.3,120.13137971723633,
0,5,2,2,T,0,200,200,200,,,,,,,None,937.4799185130687,None,936.5057981825812,None,936.9803424965503,None,1,[0.00866087286703987],[0.517140863219538],937.4799185130687,None,[0 1 3 1 1 3 3 3],space,0,2.244200231929426,0.002932766223239014,None,937.4965722122106,None,1,939.7446448833653,None,None,940.2442181738163,None,,,,,,,,,,,,,,,,,,,,,,,,,,,,,,,,,,,,,,,,,,,,,,20_NK,20,20,M,2022-12-12_15h17.40.434,dynamic target,2022.1.3,120.13137971723633,
0,4,2,2,T,0,201,201,201,,,,,,,None,941.2766700683678,None,940.3025564728669,None,940.7770953347062,None,1,[0.00865702430382953],[0.5170975668734172],941.2766700683678,None,[0 0 3 3 2 3 2 0],space,0,1.6631064956600312,0.0028846591703768354,None,941.2933308232132,None,1,942.9585644342624,None,None,943.4581418939936,None,,,,,,,,,,,,,,,,,,,,,,,,,,,,,,,,,,,,,,,,,,,,,,20_NK,20,20,M,2022-12-12_15h17.40.434,dynamic target,2022.1.3,120.13137971723633,
0,3,3,2,T,0,202,202,202,,,,,,,None,944.4905902606952,None,943.5164712130609,None,943.9910142441768,None,1,[0.008637781480501872],[0.5171710103059013],944.4905902606952,None,[0 1 3 1 0 3 3 3],space,0,1.8084196180425351,0.0028410421109583694,None,944.5072397905606,None,1,946.3140322496838,None,None,946.8135994465749,None,,,,,,,,,,,,,,,,,,,,,,,,,,,,,,,,,,,,,,,,,,,,,,20_NK,20,20,M,2022-12-12_15h17.40.434,dynamic target,2022.1.3,120.13137971723633,
0,2,3,2,T,0,203,203,203,,,,,,,None,947.8460516618434,None,946.871960837012,None,947.346478211035,None,1,[0.00944437638099771],[0.5175815238144423],947.8460516618434,None,[1 3 2 3 2 0 1 0],space,0,1.5568569406495953,0.0025007649019244127,None,947.8627056816986,None,1,949.4197064443579,None,None,949.9192864697955,None,,,,,,,,,,,,,,,,,,,,,,,,,,,,,,,,,,,,,,,,,,,,,,20_NK,20,20,M,2022-12-12_15h17.40.434,dynamic target,2022.1.3,120.13137971723633,
0,1,1,2,T,0,204,204,204,,,,,,,None,950.9517276204399,None,949.9692496518655,None,950.443831810051,None,1,[0.009378630078572314],[0.5164359345544653],950.9517276204399,None,[1 0 1 1 2 1 2 0],space,0,1.3068186153614079,0.0031098001745704096,None,950.9600650535613,None,1,952.2672725161829,None,None,952.7668451652073,None,,,,,,,,,,,,,,,,,,,,,,,,,,,,,,,,,,,,,,,,,,,,,,20_NK,20,20,M,2022-12-12_15h17.40.434,dynamic target,2022.1.3,120.13137971723633,
0,8,3,2,T,0,205,205,205,,,,,,,None,953.7992662712495,None,952.816814120124,953.815943061778,953.2997210432441,None,5,"[0.00807043898748816, 0.6503627592428529, 0.6669000393194437, 0.6835643220147176, 0.7164403604037943]","[0.041283226739324164, 0.6586843170371139, 0.6751677172178461, 0.7000236686690187, 1.2241240186958748]",953.7992662712495,None,[1 1 3 1 2 0 1 3],space,0,1.0881364663509885,0.0031569450875394978,None,954.5236776493985,None,1,955.6144158873867,None,None,956.1139891778378,None,,,,,,,,,,,,,,,,,,,,,,,,,,,,,,,,,,,,,,,,,,,,,,20_NK,20,20,M,2022-12-12_15h17.40.434,dynamic target,2022.1.3,120.13137971723633,
0,7,1,2,T,0,206,206,206,,,,,,,None,957.1464333752629,None,956.1723255526049,957.1714124807659,956.6468669801543,None,2,"[0.008628480787592707, 0.7005589397995209]","[0.4998216831954778, 1.2083526028800406]",957.1464333752629,None,[3 3 3 1 1 2 2 0],space,0,0.9414324087483692,0.002735848025622545,None,957.8541618693234,None,1,958.7950245121465,None,None,959.2945987647374,None,,,,,,,,,,,,,,,,,,,,,,,,,,,,,,,,,,,,,,,,,,,,,,20_NK,20,20,M,2022-12-12_15h17.40.434,dynamic target,2022.1.3,120.13137971723633,
0,6,3,2,T,0,207,207,207,,,,,,,None,960.327047452156,None,959.3529351395082,960.3520255955154,959.827481698474,None,1,[0.10852052855989314],[0.6173872996114369],960.327047452156,None,[2 0 1 2 3 3 1 2],space,0,1.2317225455808511,0.002639313206600491,None,960.4436159697434,None,1,961.6758931715558,None,None,962.1754648584404,None,,,,,,,,,,,,,,,,,,,,,,,,,,,,,,,,,,,,,,,,,,,,,,20_NK,20,20,M,2022-12-12_15h17.40.434,dynamic target,2022.1.3,120.13137971723633,
0,5,1,2,T,0,208,208,208,,,,,,,None,963.2079295815383,None,962.233813099614,963.2328981034916,962.7083452264669,None,1,[0.9997533711793949],[1.507820603030268],963.2079295815383,None,[3 0 2 2 0 1 3 2],space,0,3.347344637109927,0.0030081339355092496,None,964.2153919473931,None,1,967.5625285836068,None,None,968.0621005912046,None,,,,,,,,,,,,,,,,,,,,,,,,,,,,,,,,,,,,,,,,,,,,,,20_NK,20,20,M,2022-12-12_15h17.40.434,dynamic target,2022.1.3,120.13137971723633,
0,4,4,2,T,0,209,209,209,,,,,,,None,969.0945688421525,None,968.1204007253255,None,968.5949860906476,None,1,[0.008695830660144566],[0.516957094285317],969.0945688421525,None,[1 2 0 1 2 1 2 1],space,0,1.2361368486417632,0.002950084766780492,None,969.1112042606183,None,1,970.3518110380683,None,None,970.8513894599357,None,,,,,,,,,,,,,,,,,,,,,,,,,,,,,,,,,,,,,,,,,,,,,,20_NK,20,20,M,2022-12-12_15h17.40.434,dynamic target,2022.1.3,120.13137971723633,
0,3,3,2,T,0,210,210,210,,,,,,,None,971.8838323745076,None,970.9097335318329,None,971.3842432087258,None,1,[0.008625915073935175],[0.5170494598205551],971.8838323745076,None,[1 2 2 1 0 1 0 0],space,0,1.16740662464872,0.0030106996491667815,None,971.9004998643395,None,1,973.066154572447,None,None,973.5657464642911,None,,,,,,,,,,,,,,,,,,,,,,,,,,,,,,,,,,,,,,,,,,,,,,20_NK,20,20,M,2022-12-12_15h17.40.434,dynamic target,2022.1.3,120.13137971723633,
