tar_letter,tar_pos,tar_ori,tar_pos_type,block,trials.thisRepN,trials.thisTrialN,trials.thisN,trials.thisIndex,instructions_key.keys,instructions_key.rt,instructions_key.started,instructions_key.stopped,instruction_text.started,instruction_text.stopped,fix_key.keys,fix_key.started,fix_key.stopped,fixcross.started,fixcross.stopped,roi.started,roi.stopped,roi.numLooks,roi.timesOn,roi.timesOff,RedFixCross.started,RedFixCross.stopped,distori,search_resp.keys,search_resp.corr,search_resp.rt,search_resp.started,search_resp.stopped,fixcross_shape.started,fixcross_shape.stopped,correct,feedback_text.started,feedback_text.stopped,break_key.keys,break_key.started,break_key.stopped,break_key.rt,text_q1.started,text_q1.stopped,key_resp1.keys,key_resp1.rt,key_resp1.started,key_resp1.stopped,text_q2.started,text_q2.stopped,key_resp_2.keys,key_resp_2.rt,key_resp_2.started,key_resp_2.stopped,image.started,image.stopped,text_q1_2.started,text_q1_2.stopped,slider.response,slider.rt,slider.started,slider.stopped,mouse.x,mouse.y,mouse.leftButton,mouse.midButton,mouse.rightButton,mouse.time,mouse.started,mouse.stopped,key_resp_3.keys,key_resp_3.rt,key_resp_3.started,key_resp_3.stopped,text_q4.started,text_q4.stopped,key_resp1_3.keys,key_resp1_3.rt,key_resp1_3.started,key_resp1_3.stopped,finish_text.started,finish_text.stopped,key_resp.keys,key_resp.rt,key_resp.started,key_resp.stopped,participant,group,age,gender,date,expName,psychopyVersion,frameRate,
,,,,,,,,,space,1.318692807763,38.675921715072036,None,,,,,,,,,,,,,,,,,,,,,,,,,,,,,,,,,,,,,,,,,,,,,,,,,,,,,,,,,,,,,,,,,,,,,,,,,,21_HXY,21,23,F,2022-12-12_16h43.20.623,dynamic target,2022.1.3,120.13924850522953,
0,6,1,0,mix,0,0,0,0,,,,,38.675921715072036,None,None,137.29154573088454,None,136.34340866042476,137.34982325469173,136.79197484578253,None,4,"[0.007941512085380964, 0.3406646341973101, 0.38223329610627843, 0.9156914298255288]","[0.19069346635660622, 0.37388608121909783, 0.6323793811898213, 1.4239908583767829]",137.29154573088454,None,[0 1 0 1 1 3 0 2],space,0,2.0533426493639126,0.007215865316538839,None,138.22407911877963,None,1,140.28064659726078,None,None,140.7802233193488,None,,,,,,,,,,,,,,,,,,,,,,,,,,,,,,,,,,,,,,,,,,,,,,21_HXY,21,23,F,2022-12-12_16h43.20.623,dynamic target,2022.1.3,120.13924850522953,
0,5,2,2,mix,0,1,1,1,,,,,,,None,141.81267146155005,None,140.83016959980523,141.82933670638522,141.3131079528648,None,1,[0.11633952802367276],[0.616430610709358],141.81267146155005,None,[3 3 0 3 3 3 3 1],space,0,3.207312796050246,0.002903805780078983,None,141.92923260272437,None,1,145.13483219939735,None,None,145.63439545150868,None,,,,,,,,,,,,,,,,,,,,,,,,,,,,,,,,,,,,,,,,,,,,,,21_HXY,21,23,F,2022-12-12_16h43.20.623,dynamic target,2022.1.3,120.13924850522953,
0,4,1,2,mix,0,2,2,2,,,,,,,None,146.66686123296313,None,145.68438438688827,None,146.16728040574162,None,1,[0.0087827440656838],[0.5174628597524134],146.66686123296313,None,[0 1 0 1 2 3 2 0],space,0,2.4528790898148145,0.002406058152701007,None,146.6835210256686,None,1,149.13974713650896,None,None,149.63929788078713,None,,,,,,,,,,,,,,,,,,,,,,,,,,,,,,,,,,,,,,,,,,,,,,21_HXY,21,23,F,2022-12-12_16h43.20.623,dynamic target,2022.1.3,120.13924850522953,
1,3,4,2,mix,0,3,3,3,,,,,,,None,150.6634433873005,None,149.67262541989476,150.6717703972281,150.16387987861526,None,3,"[0.008686209250299726, 0.40823611967425677, 1.099680376748438]","[0.2672734783263877, 0.750485079439386, 1.6082142470004328]",150.6634433873005,None,[0 0 2 2 1 2 2 1],space,0,1.9890764390511322,0.002568018557212781,None,151.77083692799715,None,1,153.76077710207028,None,None,154.26038685766434,None,,,,,,,,,,,,,,,,,,,,,,,,,,,,,,,,,,,,,,,,,,,,,,21_HXY,21,23,F,2022-12-12_16h43.20.623,dynamic target,2022.1.3,120.13924850522953,
0,2,1,2,mix,0,4,4,4,,,,,,,None,155.2844848985551,None,154.29366436543933,155.29281254990929,154.78491914487313,None,2,"[0.008634895057184622, 0.3499133752338821]","[0.16671627038158476, 0.8587984269615845]",155.2844848985551,None,[2 1 1 1 1 0 1 2],space,0,3.3965431666110817,0.0022755276841053274,None,155.6425190648224,None,1,159.0396049320625,None,None,159.53916433561062,None,,,,,,,,,,,,,,,,,,,,,,,,,,,,,,,,,,,,,,,,,,,,,,21_HXY,21,23,F,2022-12-12_16h43.20.623,dynamic target,2022.1.3,120.13924850522953,
0,1,1,2,mix,0,5,5,5,,,,,,,None,160.5716496806017,None,159.5974773944945,160.59660890185842,160.07205762840022,None,2,"[0.08308953748564818, 0.6417971383380063]","[0.46610986495943507, 1.1496578305777803]",160.5716496806017,None,[2 3 1 0 1 1 3 2],space,0,2.698819977151288,0.0026302370133635122,None,161.22109038801864,None,1,163.91877637469224,None,None,164.41833962680357,None,,,,,,,,,,,,,,,,,,,,,,,,,,,,,,,,,,,,,,,,,,,,,,21_HXY,21,23,F,2022-12-12_16h43.20.623,dynamic target,2022.1.3,120.13924850522953,
0,8,4,2,mix,0,6,6,6,,,,,,,None,165.44246492835373,None,164.45163605668495,None,164.942877686859,None,1,[0.008630405067378888],[0.5176414972702332],165.44246492835373,None,[2 2 3 1 0 2 0 1],space,0,2.557160424985341,0.0024737287385505624,None,165.45913722889236,None,1,168.01528617602162,None,None,168.51486129453951,None,,,,,,,,,,,,,,,,,,,,,,,,,,,,,,,,,,,,,,,,,,,,,,21_HXY,21,23,F,2022-12-12_16h43.20.623,dynamic target,2022.1.3,120.13924850522953,
0,7,1,2,mix,0,7,7,7,,,,,,,None,169.5472953253411,None,168.56480180215294,169.56395255233656,169.04772379881615,None,1,[0.08280121588904876],[0.5828284765520948],169.5472953253411,None,[0 3 0 2 2 2 3 1],space,0,1.5208261310035596,0.0029980955987412017,None,169.63056382105788,None,1,171.15425461971972,None,None,171.65382781395783,None,,,,,,,,,,,,,,,,,,,,,,,,,,,,,,,,,,,,,,,,,,,,,,21_HXY,21,23,F,2022-12-12_16h43.20.623,dynamic target,2022.1.3,120.13924850522953,
0,6,3,2,mix,0,8,8,8,,,,,,,None,172.68628653970882,None,171.71212612001182,172.71126917306538,172.1783578561699,None,1,[0.16676341529091587],[0.6669096607292886],172.68628653970882,None,[2 2 3 2 3 3 0 2],space,0,5.010384655801317,0.002912785766966408,None,172.84446188414222,None,1,177.85684335638507,None,None,178.35642617203303,None,,,,,,,,,,,,,,,,,,,,,,,,,,,,,,,,,,,,,,,,,,,,,,21_HXY,21,23,F,2022-12-12_16h43.20.623,dynamic target,2022.1.3,120.13924850522953,
0,5,3,2,mix,0,9,9,9,,,,,,,None,179.3805537185799,None,178.38974024116396,179.38887271066415,178.88099149274785,None,1,[0.0913928146037506],[0.5915416257485049],179.3805537185799,None,[1 2 0 0 0 3 1 2],space,0,1.8385478708369192,0.002945498559711268,None,179.4721187564246,None,1,181.31221508598537,None,None,181.81180720232987,None,,,,,,,,,,,,,,,,,,,,,,,,,,,,,,,,,,,,,,,,,,,,,,21_HXY,21,23,F,2022-12-12_16h43.20.623,dynamic target,2022.1.3,120.13924850522953,
0,4,2,2,mix,0,10,10,10,,,,,,,None,182.83592352390042,None,181.84514692855737,182.84425309953804,182.3363487902352,None,3,"[0.008677549976709997, 0.30861635780820507, 0.9835961368116841]","[0.15878213470932678, 0.7091402756741445, 1.491600829493109]",182.83592352390042,None,[3 3 3 2 3 3 1 2],space,0,3.739820013714052,0.002535626477765618,None,183.82676297912258,None,1,187.56520878781157,None,None,188.06477717134294,None,,,,,,,,,,,,,,,,,,,,,,,,,,,,,,,,,,,,,,,,,,,,,,21_HXY,21,23,F,2022-12-12_16h43.20.623,dynamic target,2022.1.3,120.13924850522953,
1,3,1,2,mix,0,11,11,11,,,,,,,None,189.08892203642972,None,188.09810855901378,None,188.58934056777798,None,1,[0.00898832153325202],[0.5176286687237734],189.08892203642972,None,[1 2 1 0 3 1 2 1],space,0,4.3162961144480505,0.002362761806580238,None,189.10557637699821,None,1,193.42690133500219,None,None,193.9264523999973,None,,,,,,,,,,,,,,,,,,,,,,,,,,,,,,,,,,,,,,,,,,,,,,21_HXY,21,23,F,2022-12-12_16h43.20.623,dynamic target,2022.1.3,120.13924850522953,
1,2,1,2,mix,0,12,12,12,,,,,,,None,194.95888450651546,None,193.9680905926325,194.9672217792795,194.4593222806834,None,1,[0.04136051873501856],[0.5504440922304639],194.95888450651546,None,[3 3 1 0 0 1 2 1],space,0,2.3649121387170453,0.0026142013266508,None,195.0088449625182,None,1,197.3735037905135,None,None,197.87308404045143,None,,,,,,,,,,,,,,,,,,,,,,,,,,,,,,,,,,,,,,,,,,,,,,21_HXY,21,23,F,2022-12-12_16h43.20.623,dynamic target,2022.1.3,120.13924850522953,
1,1,4,2,mix,0,13,13,13,,,,,,,None,198.90551390197652,None,197.92306463727436,198.92217209111186,198.4059532797146,None,1,[0.13304678635540768],[0.6330849512814893],198.90551390197652,None,[3 1 3 3 1 0 0 2],space,0,1.9677868236976792,0.002951271402707789,None,199.03872425230293,None,1,201.0037401629088,None,None,201.50330758430027,None,,,,,,,,,,,,,,,,,,,,,,,,,,,,,,,,,,,,,,,,,,,,,,21_HXY,21,23,F,2022-12-12_16h43.20.623,dynamic target,2022.1.3,120.13924850522953,
1,8,1,2,mix,0,14,14,14,,,,,,,None,202.53576855504798,None,201.56160364536117,202.5607271348781,202.03618067212665,None,1,[0.04193523764843121],[0.5419734025745129],202.53576855504798,None,[1 2 2 0 1 2 3 3],space,0,1.4525112312257988,0.0026164463270106353,None,202.57738211687683,None,1,204.03446741966036,None,None,204.53404125532506,None,,,,,,,,,,,,,,,,,,,,,,,,,,,,,,,,,,,,,,,,,,,,,,21_HXY,21,23,F,2022-12-12_16h43.20.623,dynamic target,2022.1.3,120.13924850522953,
0,7,2,2,mix,0,15,15,15,,,,,,,None,205.56651152676932,None,204.5840446228176,205.58315015237167,205.0669178709977,None,3,"[0.009645784572057892, 0.383404542459175, 1.0922792672063224]","[0.20023790540653863, 0.7928497526991123, 1.599688715305092]",205.56651152676932,None,[1 0 3 0 3 0 1 2],space,0,1.5877722248114878,0.0027261304057901725,None,206.66556907755512,None,0,208.2642119455595,None,None,208.76375595485115,None,,,,,,,,,,,,,,,,,,,,,,,,,,,,,,,,,,,,,,,,,,,,,,21_HXY,21,23,F,2022-12-12_16h43.20.623,dynamic target,2022.1.3,120.13924850522953,
1,6,3,2,mix,0,16,16,16,,,,,,,None,209.79622366058538,None,208.82209916082138,None,209.29662198697406,None,1,[0.008563696625060402],[0.5176578536702436],209.79622366058538,None,[0 3 1 0 0 3 2 2],space,0,1.527866116946825,0.0024028510197240394,None,209.81288601900087,None,1,211.34491825970326,None,None,211.84448600180804,None,,,,,,,,,,,,,,,,,,,,,,,,,,,,,,,,,,,,,,,,,,,,,,21_HXY,21,23,F,2022-12-12_16h43.20.623,dynamic target,2022.1.3,120.13924850522953,
1,5,2,2,mix,0,17,17,17,,,,,,,None,212.8685875705487,None,211.87777569670288,212.87690592120634,212.3690157233068,None,1,[0.05912773576710606],[0.5666471886579529],212.8685875705487,None,[3 1 3 0 3 0 0 3],space,0,5.541557704560546,0.0028143266681581736,None,212.93518793500698,None,1,218.48045218062907,None,None,218.98002280915716,None,,,,,,,,,,,,,,,,,,,,,,,,,,,,,,,,,,,,,,,,,,,,,,21_HXY,21,23,F,2022-12-12_16h43.20.623,dynamic target,2022.1.3,120.13924850522953,
1,4,4,2,mix,0,18,18,18,,,,,,,None,220.00415035570404,None,219.01334361327463,220.01248153490815,219.50455990706905,None,4,"[0.008776650505751604, 0.2585593669900845, 0.5254858331172727, 0.5501259442607989]","[0.10005593246751232, 0.36826108402601676, 0.5419326719384117, 1.0503443502784648]",220.00415035570404,None,[3 2 3 3 1 0 1 1],space,0,2.3871036009331874,0.0025032343983184546,None,220.55368779036507,None,1,222.94329172821745,None,None,223.44288705169856,None,,,,,,,,,,,,,,,,,,,,,,,,,,,,,,,,,,,,,,,,,,,,,,21_HXY,21,23,F,2022-12-12_16h43.20.623,dynamic target,2022.1.3,120.13924850522953,
0,3,1,2,mix,0,19,19,19,,,,,,,None,224.4753319867632,None,223.50117349134598,224.50028768017,223.97575115953805,None,3,"[0.008757086972764228, 0.2334532588683942, 1.0088491317983426]","[0.0585514132908429, 0.7013905503663409, 1.516094053775305]",224.4753319867632,None,[2 0 1 3 0 3 3 0],space,0,2.5381799481074268,0.0029955298923596274,None,225.49113066324207,None,1,228.03063424978245,None,None,228.53018467335096,None,,,,,,,,,,,,,,,,,,,,,,,,,,,,,,,,,,,,,,,,,,,,,,21_HXY,21,23,F,2022-12-12_16h43.20.623,dynamic target,2022.1.3,120.13924850522953,
1,2,4,2,mix,0,20,20,20,,,,,,,None,229.5626475683821,None,228.5885365385875,None,229.0630558368939,None,1,[0.008646440750453621],[0.5171880081288691],229.5626475683821,None,[3 1 2 2 1 3 0 0],space,0,5.729032809162163,0.0029753249291388784,None,229.57930158823729,None,1,235.3077295844887,None,None,235.80732458725652,None,,,,,,,,,,,,,,,,,,,,,,,,,,,,,,,,,,,,,,,,,,,,,,21_HXY,21,23,F,2022-12-12_16h43.20.623,dynamic target,2022.1.3,120.13924850522953,
0,1,3,2,mix,0,21,21,21,,,,,,,None,236.83141845886712,None,235.8406210171379,None,236.33185527089518,None,1,[0.008643554327136371],[0.517758237048838],236.83141845886712,None,[3 1 3 3 2 2 0 2],space,0,2.2510751395202533,0.002306636917637661,None,236.84808851440903,None,1,239.10449813761443,None,None,239.60406395543941,None,,,,,,,,,,,,,,,,,,,,,,,,,,,,,,,,,,,,,,,,,,,,,,21_HXY,21,23,F,2022-12-12_16h43.20.623,dynamic target,2022.1.3,120.13924850522953,
1,8,4,2,mix,0,22,22,22,,,,,,,None,240.62818604985296,None,239.63734531177397,240.63653454759697,240.12862927615424,None,2,"[0.008605068687757012, 0.8257729360011581]","[0.31660276981347124, 1.3329081739029789]",240.62818604985296,None,[1 0 3 3 1 1 2 2],space,0,2.742854606531182,0.0030122070020297542,None,241.46079660145915,None,1,244.20845523125536,None,None,244.70803163263008,None,,,,,,,,,,,,,,,,,,,,,,,,,,,,,,,,,,,,,,,,,,,,,,21_HXY,21,23,F,2022-12-12_16h43.20.623,dynamic target,2022.1.3,120.13924850522953,
0,7,4,2,mix,0,23,23,23,,,,,,,None,245.73215244419043,None,244.7413383253479,245.740512808341,245.2325690512589,None,4,"[0.008634895057184622, 0.19173610652069328, 0.5924656018542009, 0.6176563783847087]","[0.025156460167636396, 0.47514917996522854, 0.5999674154882086, 1.124858324732486]",245.73215244419043,None,[3 3 1 3 1 1 0 1],space,0,3.639426690457185,0.002906050780438818,None,246.35660763183114,None,1,249.99518833269394,None,None,250.4947567162253,None,,,,,,,,,,,,,,,,,,,,,,,,,,,,,,,,,,,,,,,,,,,,,,21_HXY,21,23,F,2022-12-12_16h43.20.623,dynamic target,2022.1.3,120.13924850522953,
1,6,4,2,mix,0,24,24,24,,,,,,,None,251.51887656564213,None,250.5280576360965,251.52720421699996,251.01930311483375,None,1,[0.7916951834595238],[1.2999942912974802],251.51887656564213,None,[2 0 2 0 3 3 0 3],space,0,1.916734016907867,0.0024294702561746817,None,252.31820056535435,None,1,254.2332069507611,None,None,254.73278752141596,None,,,,,,,,,,,,,,,,,,,,,,,,,,,,,,,,,,,,,,,,,,,,,,21_HXY,21,23,F,2022-12-12_16h43.20.623,dynamic target,2022.1.3,120.13924850522953,
1,5,1,2,mix,0,25,25,25,,,,,,,None,255.76525266144017,None,254.774426996908,255.77357101210146,255.26567183421867,None,2,"[0.00865125145719503, 0.21672226773080183]","[0.06758527616329957, 0.7171603626120486]",255.76525266144017,None,[3 2 2 2 2 0 2 2],space,0,2.34924046485321,0.002658780533238314,None,255.98173567676713,None,1,258.3297199592307,None,None,258.8292902670455,None,,,,,,,,,,,,,,,,,,,,,,,,,,,,,,,,,,,,,,,,,,,,,,21_HXY,21,23,F,2022-12-12_16h43.20.623,dynamic target,2022.1.3,120.13924850522953,
0,5,3,0,mix,0,26,26,26,,,,,,,None,259.8617441820934,None,258.88762064446564,259.88671366618655,259.36216335486824,None,2,"[0.008133619579894003, 0.4913721606390027]","[0.3331320320467057, 0.9915780588198686]",259.8617441820934,None,[2 0 2 2 2 3 0 1],space,0,2.889193691971741,0.0024179245592677034,None,260.35298805726416,None,1,263.2421744259045,None,None,263.74174954442606,None,,,,,,,,,,,,,,,,,,,,,,,,,,,,,,,,,,,,,,,,,,,,,,21_HXY,21,23,F,2022-12-12_16h43.20.623,dynamic target,2022.1.3,120.13924850522953,
0,6,1,1,mix,0,27,27,27,,,,,,,None,264.77420794946374,None,263.7833906234846,264.78253656296147,264.2746351400856,None,3,"[0.008587108721258119, 0.47486470693183946, 1.2912076986649481]","[0.31670988817859325, 0.9334281790579553, 1.7997367582102015]",264.77420794946374,None,[2 2 2 0 1 2 0 3],space,0,4.065278971022053,0.0025048379648069385,None,266.07309160929435,None,1,270.13631453801645,None,None,270.6358633580112,None,,,,,,,,,,,,,,,,,,,,,,,,,,,,,,,,,,,,,,,,,,,,,,21_HXY,21,23,F,2022-12-12_16h43.20.623,dynamic target,2022.1.3,120.13924850522953,
0,5,2,2,mix,0,28,28,28,,,,,,,None,271.6599751895883,None,270.66917486143575,271.6683009166627,271.1604017387799,None,3,"[0.06711992061536876, 0.4493400674655277, 1.315949796764471]","[0.3081477951272973, 0.8828875520121073, 1.8235167152779468]",271.6599751895883,None,[1 0 1 0 0 1 3 1],space,0,2.530648628813651,0.0031789781169209164,None,272.9838655363019,None,1,275.51501838010154,None,None,276.0145848393495,None,,,,,,,,,,,,,,,,,,,,,,,,,,,,,,,,,,,,,,,,,,,,,,21_HXY,21,23,F,2022-12-12_16h43.20.623,dynamic target,2022.1.3,120.13924850522953,
0,5,3,0,mix,0,29,29,29,,,,,,,None,277.047047092954,None,276.0562156555752,277.0553737821683,276.5474691521558,None,2,"[0.0091380948178994, 0.41662695162085583]","[0.25826527254321263, 0.9167003950533399]",277.047047092954,None,[1 0 0 0 2 1 2 3],space,0,2.130749140480475,0.0029583271098090336,None,277.4633427473491,None,1,279.5948619744522,None,None,280.0944309994138,None,,,,,,,,,,,,,,,,,,,,,,,,,,,,,,,,,,,,,,,,,,,,,,21_HXY,21,23,F,2022-12-12_16h43.20.623,dynamic target,2022.1.3,120.13924850522953,
1,6,4,1,mix,0,30,30,30,,,,,,,None,281.12690127085807,None,280.1360624570625,281.13520230297945,280.6273153122165,None,3,"[0.009285302396165207, 0.3666119742920273, 0.3832563727410161]","[0.21701219289025175, 0.3752224951131211, 0.8921526494450518]",281.12690127085807,None,[0 1 0 2 2 0 3 0],space,0,1.9157170338366996,0.002419207419734448,None,281.51821365047,None,1,283.43324922082684,None,None,283.9328294707648,None,,,,,,,,,,,,,,,,,,,,,,,,,,,,,,,,,,,,,,,,,,,,,,21_HXY,21,23,F,2022-12-12_16h43.20.623,dynamic target,2022.1.3,120.13924850522953,
1,5,2,2,mix,0,31,31,31,,,,,,,None,284.95693937805845,None,283.9661226935059,None,284.45737811436993,None,1,[0.008601220120908692],[0.5172694694047095],284.95693937805845,None,[2 1 2 1 3 3 1 3],space,0,3.771731986787927,0.002868206567654852,None,284.9736299592769,None,1,288.74535750915675,None,None,289.2449367969548,None,,,,,,,,,,,,,,,,,,,,,,,,,,,,,,,,,,,,,,,,,,,,,,21_HXY,21,23,F,2022-12-12_16h43.20.623,dynamic target,2022.1.3,120.13924850522953,
0,4,2,2,mix,0,32,32,32,,,,,,,None,290.2773996919859,None,289.2949000752378,290.294060126118,289.777836504014,None,2,"[0.008635536487417994, 0.7921271847844764]","[0.43318251238088124, 1.2999805006111274]",290.2773996919859,None,[2 2 1 2 2 2 1 3],space,0,3.524456609837216,0.0026417827102704905,None,291.076722088128,None,1,294.5987137457232,None,None,295.09827122499155,None,,,,,,,,,,,,,,,,,,,,,,,,,,,,,,,,,,,,,,,,,,,,,,21_HXY,21,23,F,2022-12-12_16h43.20.623,dynamic target,2022.1.3,120.13924850522953,
0,3,3,2,mix,0,33,33,33,,,,,,,None,296.130739572156,None,295.1482931938772,296.14738461202796,295.63117285633416,None,3,"[0.008667928570503136, 0.3666094085856457, 0.384098566861212]","[0.21701219289388973, 0.3749967126859701, 0.8918893435184145]",296.130739572156,None,[0 0 0 0 3 1 2 2],space,0,1.711431080388138,0.0027819345887110103,None,296.52205836604116,None,0,298.24559066800066,None,None,298.74515744796554,None,,,,,,,,,,,,,,,,,,,,,,,,,,,,,,,,,,,,,,,,,,,,,,21_HXY,21,23,F,2022-12-12_16h43.20.623,dynamic target,2022.1.3,120.13924850522953,
1,2,1,2,mix,0,34,34,34,,,,,,,None,299.7776277194098,None,298.795111425552,299.79426762786534,299.2780517028914,None,4,"[0.09972527666104725, 0.12471368286423967, 0.9410319796443218, 1.723888614855241]","[0.11636775082661188, 0.3246327988745179, 1.399770561434707, 2.2321097892709076]",299.7776277194098,None,[3 1 3 2 2 2 0 3],space,0,2.1795280872975127,0.0027444110783108044,None,301.5094463006644,None,1,303.6909439437404,None,None,304.19049917801203,None,,,,,,,,,,,,,,,,,,,,,,,,,,,,,,,,,,,,,,,,,,,,,,21_HXY,21,23,F,2022-12-12_16h43.20.623,dynamic target,2022.1.3,120.13924850522953,
0,1,3,2,mix,0,35,35,35,,,,,,,None,305.2229546966264,None,304.2405429554274,305.2395865872386,304.72338349081474,None,3,"[0.00945399779084255, 0.19180794638668885, 0.6588594267050212]","[0.025511169493256602, 0.5084771039291809, 1.1665110136273142]",305.2229546966264,None,[3 0 1 2 2 1 3 3],space,0,3.36723186074596,0.00266679837659467,None,305.8890417267721,None,1,309.2528740756243,None,None,309.75241038778586,None,,,,,,,,,,,,,,,,,,,,,,,,,,,,,,,,,,,,,,,,,,,,,,21_HXY,21,23,F,2022-12-12_16h43.20.623,dynamic target,2022.1.3,120.13924850522953,
0,8,4,2,mix,0,36,36,36,,,,,,,None,310.78487430910354,None,309.79403735544474,None,310.285288286319,None,1,[0.008632329350803047],[0.5091262284149707],310.78487430910354,None,[3 0 2 2 3 1 0 3],space,0,2.159396248316625,0.0017710450774757192,None,310.7931961234681,None,1,312.95801793815554,None,None,313.4576013952337,None,,,,,,,,,,,,,,,,,,,,,,,,,,,,,,,,,,,,,,,,,,,,,,21_HXY,21,23,F,2022-12-12_16h43.20.623,dynamic target,2022.1.3,120.13924850522953,
0,7,3,2,mix,0,37,37,37,,,,,,,None,314.4817090575307,None,313.49087345087173,314.490035746745,313.9821365688622,None,2,"[0.016966074268566445, 0.8331718005465518]","[0.4415226715718745, 1.3416950872451707]",314.4817090575307,None,[2 1 0 0 3 3 0 1],space,0,2.7488455380334926,0.002505158685380593,None,315.3226459776415,None,1,318.07029658959436,None,None,318.56986497312573,None,,,,,,,,,,,,,,,,,,,,,,,,,,,,,,,,,,,,,,,,,,,,,,21_HXY,21,23,F,2022-12-12_16h43.20.623,dynamic target,2022.1.3,120.13924850522953,
1,6,4,2,mix,0,38,38,38,,,,,,,None,319.5939925196726,None,318.61152016358756,319.6106760451876,319.0944299731309,None,2,"[0.0085890330010443, 0.39152148492939887]","[0.25032472259772476, 0.8918707421253202]",319.5939925196726,None,[0 0 2 1 1 1 1 1],space,0,5.542599382588378,0.0028364559111651033,None,319.9853334428044,None,1,325.53057106919005,None,None,326.03016735481106,None,,,,,,,,,,,,,,,,,,,,,,,,,,,,,,,,,,,,,,,,,,,,,,21_HXY,21,23,F,2022-12-12_16h43.20.623,dynamic target,2022.1.3,120.13924850522953,
1,5,1,2,mix,0,39,39,39,,,,,,,None,327.0542978519243,None,326.0634698782487,None,326.5547169605561,None,1,[0.008681398543558316],[0.5089918493831647],327.0542978519243,None,[0 0 2 3 3 1 2 1],space,0,2.4645828940556385,0.002722602555877529,None,327.06261004487897,None,1,329.52716893849356,None,None,330.02673571845844,None,,,,,,,,,,,,,,,,,,,,,,,,,,,,,,,,,,,,,,,,,,,,,,21_HXY,21,23,F,2022-12-12_16h43.20.623,dynamic target,2022.1.3,120.13924850522953,
1,6,4,1,mix,0,40,40,40,,,,,,,None,331.050874169272,None,330.0767839858672,None,330.5513045670268,None,1,[0.008627839357359335],[0.5177402770823392],331.050874169272,None,[1 3 0 1 1 3 3 0],space,0,1.9317196842093836,0.0024836708689690568,None,331.0675063805975,None,1,332.9992152136292,None,None,333.49878712501413,None,,,,,,,,,,,,,,,,,,,,,,,,,,,,,,,,,,,,,,,,,,,,,,21_HXY,21,23,F,2022-12-12_16h43.20.623,dynamic target,2022.1.3,120.13924850522953,
1,5,2,2,mix,0,41,41,41,,,,,,,None,334.53121217582884,None,333.55710948459455,334.5562018648852,334.03166053355017,None,4,"[0.008648044320580084, 0.15847136315278476, 0.8836755455158709, 1.816860302893474]","[0.017221683065145044, 0.5671449362816929, 1.3839103079299093, 2.3240337057250144]",334.53121217582884,None,[2 2 1 1 0 0 1 3],space,0,1.9563549846534443,0.002793480274704052,None,336.354672124784,None,1,338.3113260676728,None,None,338.8109213911539,None,,,,,,,,,,,,,,,,,,,,,,,,,,,,,,,,,,,,,,,,,,,,,,21_HXY,21,23,F,2022-12-12_16h43.20.623,dynamic target,2022.1.3,120.13924850522953,
0,4,4,2,mix,0,42,42,42,,,,,,,None,339.84335195824497,None,338.8691847394148,None,339.33547195903884,None,1,[0.00867241856030887],[0.5165369593632931],339.84335195824497,None,[2 3 1 1 0 2 3 0],space,0,2.027339184372977,0.0029807770588377025,None,339.85167858331624,None,1,341.8832695220008,None,None,342.38283566053906,None,,,,,,,,,,,,,,,,,,,,,,,,,,,,,,,,,,,,,,,,,,,,,,21_HXY,21,23,F,2022-12-12_16h43.20.623,dynamic target,2022.1.3,120.13924850522953,
1,3,4,2,mix,0,43,43,43,,,,,,,None,343.4153036869866,None,342.4328454423048,None,342.9157276704718,None,1,[0.008757407686061924],[0.51753983103481],343.4153036869866,None,[2 0 0 2 3 3 3 3],space,0,2.1906231769789883,0.002239287041447824,None,343.4319509718589,None,1,345.62173393208286,None,None,346.12131963415413,None,,,,,,,,,,,,,,,,,,,,,,,,,,,,,,,,,,,,,,,,,,,,,,21_HXY,21,23,F,2022-12-12_16h43.20.623,dynamic target,2022.1.3,120.13924850522953,
0,2,1,2,mix,0,44,44,44,,,,,,,None,347.15376488993206,None,346.1629405082531,347.16209061700647,346.65420170196376,None,2,"[0.017565488127729623, 0.050151601353718434]","[0.04185185208916664, 0.559107851520821]",347.15376488993206,None,[3 3 0 1 3 0 3 1],space,0,2.170533030774095,0.0024830294387356844,None,347.21205492157605,None,1,349.3852069533277,None,None,349.8847538490463,None,,,,,,,,,,,,,,,,,,,,,,,,,,,,,,,,,,,,,,,,,,,,,,21_HXY,21,23,F,2022-12-12_16h43.20.623,dynamic target,2022.1.3,120.13924850522953,
1,1,1,2,mix,0,45,45,45,,,,,,,None,350.9172327797605,None,349.9513996907044,None,350.4176400861288,None,1,[0.008640667903819121],[0.5172608101347578],350.9172327797605,None,[2 1 0 1 1 2 2 0],space,0,2.2724612896927283,0.002898032937082462,None,350.93387300892937,None,1,353.20695044267995,None,None,353.70650214910165,None,,,,,,,,,,,,,,,,,,,,,,,,,,,,,,,,,,,,,,,,,,,,,,21_HXY,21,23,F,2022-12-12_16h43.20.623,dynamic target,2022.1.3,120.13924850522953,
1,8,3,2,mix,0,46,46,46,,,,,,,None,354.73893650061655,None,353.7481342481806,354.7472712076742,354.23936304980816,None,2,"[0.1331930317901424, 0.407816946895764]","[0.24992190621924237, 0.9081386227153416]",354.73893650061655,None,[2 1 0 3 0 2 0 0],space,0,4.1232954338956915,0.002740562518738443,None,355.1469324057434,None,1,359.2683975797663,None,None,359.76797526399423,None,,,,,,,,,,,,,,,,,,,,,,,,,,,,,,,,,,,,,,,,,,,,,,21_HXY,21,23,F,2022-12-12_16h43.20.623,dynamic target,2022.1.3,120.13924850522953,
0,7,3,2,mix,0,47,47,47,,,,,,,None,360.8004426490188,None,359.8096153809129,360.80876035824986,360.3008701603503,None,2,"[0.008668249280162854, 0.3166309926127724]","[0.1680437042923586, 0.8169731941088685]",360.8004426490188,None,[3 0 0 1 2 3 0 0],space,0,1.2568806985109404,0.0028335694878478535,None,361.1168247678179,None,0,362.3824042364977,None,None,362.8819966735555,None,,,,,,,,,,,,,,,,,,,,,,,,,,,,,,,,,,,,,,,,,,,,,,21_HXY,21,23,F,2022-12-12_16h43.20.623,dynamic target,2022.1.3,120.13924850522953,
1,6,3,2,mix,0,48,48,48,,,,,,,None,363.9144390429137,None,362.93194455758567,363.931086969209,363.4148588571188,None,3,"[0.024818748664984014, 0.05807579490283388, 0.7420115033564798]","[0.049786629188020015, 0.507727275351499, 1.2495585376200324]",363.9144390429137,None,[3 1 2 2 0 2 2 1],space,0,2.221891798413708,0.00261323918675771,None,364.6637923237831,None,1,366.8868967936978,None,None,367.38646229080587,None,,,,,,,,,,,,,,,,,,,,,,,,,,,,,,,,,,,,,,,,,,,,,,21_HXY,21,23,F,2022-12-12_16h43.20.623,dynamic target,2022.1.3,120.13924850522953,
1,5,2,2,mix,0,49,49,49,,,,,,,None,368.4189210165605,None,367.42808605132814,368.4272544407613,367.91935398002533,None,6,"[0.041438452160946326, 0.07547130478633335, 0.4171529220548109, 0.6415623759239679, 1.2078449131295201, 1.2408543684105098]","[0.06651826175948372, 0.19995920521978405, 0.49971360268682474, 1.0826463111843623, 1.23259021836202, 1.741128257890523]",368.4189210165605,None,[3 2 1 3 2 0 2 2],space,0,1.8973799085943028,0.0023242761635628995,None,369.65951656903053,None,1,371.5578923466819,None,None,372.0574709930497,None,,,,,,,,,,,,,,,,,,,,,,,,,,,,,,,,,,,,,,,,,,,,,,21_HXY,21,23,F,2022-12-12_16h43.20.623,dynamic target,2022.1.3,120.13924850522953,
1,4,2,2,mix,0,50,50,50,,,,,,,None,373.0815776932104,None,372.0991374084915,373.0982442208988,372.5820222023649,None,2,"[0.1579902926387149, 0.17463180466074846]","[0.16664475123252487, 0.6747863886557752]",373.0815776932104,None,[2 2 2 0 3 1 2 1],space,0,6.300740538939863,0.002952554259536555,None,373.2564295074553,None,1,379.55938558956404,None,None,380.05897321591874,None,,,,,,,,,,,,,,,,,,,,,,,,,,,,,,,,,,,,,,,,,,,,,,21_HXY,21,23,F,2022-12-12_16h43.20.623,dynamic target,2022.1.3,120.13924850522953,
0,3,3,2,mix,0,51,51,51,,,,,,,None,381.0914178302701,None,380.11725676914284,381.1163959736332,380.5918713194078,None,3,"[0.007950171358970692, 0.49181602837415994, 0.5074764772543858]","[0.3745034550483979, 0.49946376673324266, 1.007688468998822]",381.0914178302701,None,[0 0 1 1 0 1 2 1],space,0,4.533146026224131,0.002649800546350889,None,381.5993099524494,None,1,386.1370964379603,None,None,386.63666450077835,None,,,,,,,,,,,,,,,,,,,,,,,,,,,,,,,,,,,,,,,,,,,,,,21_HXY,21,23,F,2022-12-12_16h43.20.623,dynamic target,2022.1.3,120.13924850522953,
0,2,2,2,mix,0,52,52,52,,,,,,,None,387.6691469593461,None,386.6949502989992,387.6941042563194,387.1695533035745,None,5,"[0.10802374307604623, 0.48338767292079865, 0.507639079092769, 1.0075556935335044, 1.0246670510969125]","[0.30813304229741334, 0.49929250562854577, 0.8582426301618398, 1.0167069376147992, 1.5326906658847292]",387.6691469593461,None,[2 0 0 3 0 1 2 1],space,0,2.6953334987592825,0.0026350477201049216,None,388.701578809294,None,1,391.39925485384083,None,None,391.89885306374526,None,,,,,,,,,,,,,,,,,,,,,,,,,,,,,,,,,,,,,,,,,,,,,,21_HXY,21,23,F,2022-12-12_16h43.20.623,dynamic target,2022.1.3,120.13924850522953,
0,1,3,2,mix,0,53,53,53,,,,,,,None,392.93128452883684,None,391.9404729757043,392.9396224430311,392.42338791666407,None,5,"[0.008665362860483583, 0.31709891387072275, 0.3332510168220324, 0.5591485821569222, 0.5836594456923194]","[0.15043042982870247, 0.32496762395385304, 0.400224050576071, 0.5755133182756254, 1.0914194338365633]",392.93128452883684,None,[1 1 2 0 1 3 3 3],space,0,3.7068734183121705,0.003207842350093415,None,393.5141498874618,None,1,397.2192931085665,None,None,397.71887047208475,None,,,,,,,,,,,,,,,,,,,,,,,,,,,,,,,,,,,,,,,,,,,,,,21_HXY,21,23,F,2022-12-12_16h43.20.623,dynamic target,2022.1.3,120.13924850522953,
0,8,1,2,mix,0,54,54,54,,,,,,,None,398.74296723011867,None,397.75216112911585,None,398.24340949428006,None,1,[0.00899120795656927],[0.5176158401773137],398.74296723011867,None,[3 1 3 0 0 3 0 0],space,0,1.7714103109683492,0.002430432396067772,None,398.75962060854727,None,1,400.5331322886195,None,None,401.0327025964343,None,,,,,,,,,,,,,,,,,,,,,,,,,,,,,,,,,,,,,,,,,,,,,,21_HXY,21,23,F,2022-12-12_16h43.20.623,dynamic target,2022.1.3,120.13924850522953,
0,7,3,2,mix,0,55,55,55,,,,,,,None,402.065127647249,None,401.09099160179176,402.0901144498821,401.5655641385674,None,1,[0.05811171483583166],[0.5584959298212198],402.065127647249,None,[3 2 2 3 2 2 0 1],space,0,1.6398885181552032,0.0024176038459700067,None,402.12344461883913,None,1,403.7636959172487,None,None,404.263264621497,None,,,,,,,,,,,,,,,,,,,,,,,,,,,,,,,,,,,,,,,,,,,,,,21_HXY,21,23,F,2022-12-12_16h43.20.623,dynamic target,2022.1.3,120.13924850522953,
0,3,4,0,mix,0,56,56,56,,,,,,,None,405.2957105187015,None,404.3215770389543,None,404.7961668942662,None,1,[0.007692958984989673],[0.5165562021829828],405.2957105187015,None,[0 2 1 1 0 0 3 3],space,0,3.5549494248880364,0.0026174084705417044,None,405.312359086427,None,1,408.86765108660984,None,None,409.36723967510443,None,,,,,,,,,,,,,,,,,,,,,,,,,,,,,,,,,,,,,,,,,,,,,,21_HXY,21,23,F,2022-12-12_16h43.20.623,dynamic target,2022.1.3,120.13924850522953,
0,2,1,2,mix,0,57,57,57,,,,,,,None,410.3996746680459,None,409.42552932188846,None,409.9001156493505,None,1,[0.009217952523613349],[0.5174067348561948],410.3996746680459,None,[2 0 1 0 2 0 1 1],space,0,2.1307876261198544,0.0025064415312954225,None,410.4163469685809,None,1,412.547855291421,None,None,413.0474230335258,None,,,,,,,,,,,,,,,,,,,,,,,,,,,,,,,,,,,,,,,,,,,,,,21_HXY,21,23,F,2022-12-12_16h43.20.623,dynamic target,2022.1.3,120.13924850522953,
1,1,1,2,mix,0,58,58,58,,,,,,,None,414.0715393550963,None,413.0890368519249,None,413.57196558357464,None,1,[0.008647082180686994],[0.5176524015369068],414.0715393550963,None,[1 1 3 3 0 3 1 3],space,0,3.835399103947566,0.002553265730966814,None,414.08818375354167,None,1,417.92658446988935,None,None,418.42615638127063,None,,,,,,,,,,,,,,,,,,,,,,,,,,,,,,,,,,,,,,,,,,,,,,21_HXY,21,23,F,2022-12-12_16h43.20.623,dynamic target,2022.1.3,120.13924850522953,
0,8,2,2,mix,0,59,59,59,,,,,,,None,419.45861574845185,None,418.48443704807505,419.4835704797151,418.95902080982705,None,4,"[0.04983313267439371, 0.08367483994879876, 0.6250382451071346, 0.6501433910852938]","[0.07475483042799169, 0.4913654256561131, 0.6424363206970156, 1.1575089014077093]",419.45861574845185,None,[0 3 0 2 3 2 2 1],space,0,2.15882409511687,0.003187637383234687,None,420.1164155371662,None,1,422.2728638384433,None,space,422.7890797634136,None,6.418910700635024,,,,,,,,,,,,,,,,,,,,,,,,,,,,,,,,,,,,,,,,,,,,,21_HXY,21,23,F,2022-12-12_16h43.20.623,dynamic target,2022.1.3,120.13924850522953,
1,7,1,2,mix,0,60,60,60,,,,,,,None,430.2493722029758,None,429.25854365201667,430.2576963264801,429.749810618574,None,2,"[0.04977251778836944, 0.08313700310827699]","[0.07473879474491696, 0.5833945361919177]",430.2493722029758,None,[1 3 0 3 3 3 1 0],space,0,1.910048419580562,0.002808233108225977,None,430.3326435851159,None,1,432.2476551019463,None,None,432.7472331068875,None,,,,,,,,,,,,,,,,,,,,,,,,,,,,,,,,,,,,,,,,,,,,,,21_HXY,21,23,F,2022-12-12_16h43.20.623,dynamic target,2022.1.3,120.13924850522953,
1,6,4,2,mix,0,61,61,61,,,,,,,None,433.7713661055677,None,432.7805545524352,433.7796921533554,433.27177084622963,None,3,"[0.00866183500693296, 0.3249650582438335, 1.2328474307287252]","[0.17539382035829476, 0.7587537194740435, 1.732963208367437]",433.7713661055677,None,[2 0 2 1 1 0 1 0],space,0,2.182804818938166,0.002743128228757996,None,435.0036439488067,None,1,437.185117217643,None,None,437.6846702069179,None,,,,,,,,,,,,,,,,,,,,,,,,,,,,,,,,,,,,,,,,,,,,,,21_HXY,21,23,F,2022-12-12_16h43.20.623,dynamic target,2022.1.3,120.13924850522953,
1,7,1,1,mix,0,62,62,62,,,,,,,None,438.7088134684345,None,437.72631705882304,None,438.20923905548625,None,1,[0.007849146550142905],[0.5167297082880395],438.7088134684345,None,[1 0 3 1 0 1 2 1],space,0,2.6682290237149573,0.0025837335269898176,None,438.72544984904016,None,1,441.3981637859106,None,None,441.89775237440153,None,,,,,,,,,,,,,,,,,,,,,,,,,,,,,,,,,,,,,,,,,,,,,,21_HXY,21,23,F,2022-12-12_16h43.20.623,dynamic target,2022.1.3,120.13924850522953,
1,6,2,2,mix,0,63,63,63,,,,,,,None,442.9302017994596,None,441.93938030420395,None,442.43061584081806,None,1,[0.008812891152047087],[0.5178704868376371],442.9302017994596,None,[1 2 0 2 2 1 2 0],space,0,6.0785889093640435,0.002230948484793771,None,442.94687442071154,None,1,449.02498904762615,None,None,449.52456192115096,None,,,,,,,,,,,,,,,,,,,,,,,,,,,,,,,,,,,,,,,,,,,,,,21_HXY,21,23,F,2022-12-12_16h43.20.623,dynamic target,2022.1.3,120.13924850522953,
1,5,4,2,mix,0,64,64,64,,,,,,,None,450.55699691409245,None,449.5661799088266,None,450.05741672829754,None,1,[0.00883758610507357],[0.5176790207733575],450.55699691409245,None,[1 1 0 2 3 1 1 3],space,0,4.675815826474718,0.0022341556250466965,None,450.57365991393453,None,1,455.2529962675326,None,None,455.75256048178744,None,,,,,,,,,,,,,,,,,,,,,,,,,,,,,,,,,,,,,,,,,,,,,,21_HXY,21,23,F,2022-12-12_16h43.20.623,dynamic target,2022.1.3,120.13924850522953,
1,4,2,2,mix,0,65,65,65,,,,,,,None,456.78501856611547,None,455.81084307287165,456.8100047273183,456.2854377388903,None,3,"[0.00870513135305373, 0.1751722072076518, 0.20842251846261206]","[0.04239514105938724, 0.20013527702758438, 0.7086165502369113]",456.78501856611547,None,[0 3 3 3 0 1 3 3],space,0,1.92080515633279,0.0029477435527951457,None,456.99317232651447,None,1,458.91651277755227,None,None,459.4161135531667,None,,,,,,,,,,,,,,,,,,,,,,,,,,,,,,,,,,,,,,,,,,,,,,21_HXY,21,23,F,2022-12-12_16h43.20.623,dynamic target,2022.1.3,120.13924850522953,
0,3,3,2,mix,0,66,66,66,,,,,,,None,460.4485527153847,None,459.45772833370575,460.4568890260125,459.94897734029655,None,2,"[0.008615652237494942, 0.817029319001449]","[0.508072683980572, 1.324607462491258]",460.4485527153847,None,[3 3 0 0 2 2 2 1],space,0,3.352696475445555,0.0029964920322527178,None,461.27284716133,None,1,464.6283342195711,None,None,465.12786989030974,None,,,,,,,,,,,,,,,,,,,,,,,,,,,,,,,,,,,,,,,,,,,,,,21_HXY,21,23,F,2022-12-12_16h43.20.623,dynamic target,2022.1.3,120.13924850522953,
0,6,2,0,mix,0,67,67,67,,,,,,,None,466.1603363131908,None,465.1695138557916,None,465.66075516525234,None,1,[0.00866760785720544],[0.5175975594975171],466.1603363131908,None,[1 3 1 1 3 1 2 2],space,0,2.5280053066817345,0.0025846956705208868,None,466.1769919366161,None,1,468.7081553639691,None,None,469.20772182321707,None,,,,,,,,,,,,,,,,,,,,,,,,,,,,,,,,,,,,,,,,,,,,,,21_HXY,21,23,F,2022-12-12_16h43.20.623,dynamic target,2022.1.3,120.13924850522953,
1,7,2,1,mix,0,68,68,68,,,,,,,None,470.23186700901715,None,469.2410426273382,470.2401802282584,469.73227142896576,None,5,"[0.009620448192436015, 0.3091987738480384, 0.3249753210839117, 0.8751997244435188, 1.1583373048379144]","[0.17543423028473626, 0.3169420848826121, 0.7677234396178392, 0.8831967199985229, 1.6660123038600432]",470.23186700901715,None,[3 3 1 0 3 2 2 1],space,0,4.314937892027956,0.0029503092664526775,None,471.3975399978044,None,1,475.7104821417015,None,None,476.2100732959025,None,,,,,,,,,,,,,,,,,,,,,,,,,,,,,,,,,,,,,,,,,,,,,,21_HXY,21,23,F,2022-12-12_16h43.20.623,dynamic target,2022.1.3,120.13924850522953,
1,6,4,2,mix,0,69,69,69,,,,,,,None,477.23419923888287,None,476.2517605577341,477.25088180225794,476.73462771235427,None,5,"[0.009409418587893015, 0.15007860692276154, 0.17508304880539072, 0.6671155589101545, 1.2336963598354487]","[0.017189611698995577, 0.16711940747336484, 0.5679547383188037, 1.0926407115221082, 1.7411904763430357]",477.23419923888287,None,[2 1 1 1 2 2 1 0],space,0,2.165761773390841,0.0026417827066325117,None,478.4748178827358,None,1,480.6396185303238,None,None,481.13918466885843,None,,,,,,,,,,,,,,,,,,,,,,,,,,,,,,,,,,,,,,,,,,,,,,21_HXY,21,23,F,2022-12-12_16h43.20.623,dynamic target,2022.1.3,120.13924850522953,
0,1,3,0,mix,0,70,70,70,,,,,,,None,482.1716328110597,None,481.18916526568137,None,481.6720596809646,None,1,[0.009502425557002425],[0.5177810077184404],482.1716328110597,None,[3 3 1 0 3 2 2 2],space,0,3.2355618982146552,0.0025019515414896887,None,482.18831120515824,None,1,485.42718099732883,None,None,485.9267590022737,None,,,,,,,,,,,,,,,,,,,,,,,,,,,,,,,,,,,,,,,,,,,,,,21_HXY,21,23,F,2022-12-12_16h43.20.623,dynamic target,2022.1.3,120.13924850522953,
0,8,1,2,mix,0,71,71,71,,,,,,,None,486.95921355874816,None,485.9767742361728,486.9758509014937,486.459643956503,None,3,"[0.008711224912985926, 0.37490595071358257, 0.4084125121953548]","[0.2185089636259363, 0.3998642098304117, 0.9089304647859535]",486.95921355874816,None,[0 0 0 2 2 3 3 3],space,0,3.3047584398918843,0.002641461993334815,None,487.3672017667486,None,1,490.67268892120046,None,None,491.1722819996885,None,,,,,,,,,,,,,,,,,,,,,,,,,,,,,,,,,,,,,,,,,,,,,,21_HXY,21,23,F,2022-12-12_16h43.20.623,dynamic target,2022.1.3,120.13924850522953,
1,7,4,2,mix,0,72,72,72,,,,,,,None,492.19638485128235,None,491.2139099294873,492.2130504168308,491.69681332475375,None,3,"[0.06631428785840399, 0.0912808855282492, 0.9077553698698466]","[0.0829275770811364, 0.5420506945702073, 1.4161243932903744]",492.19638485128235,None,[3 1 1 2 0 1 1 1],space,0,2.615258990557777,0.0026886068990279455,None,493.11228731070514,None,1,495.7266977459585,None,None,496.22629852157297,None,,,,,,,,,,,,,,,,,,,,,,,,,,,,,,,,,,,,,,,,,,,,,,21_HXY,21,23,F,2022-12-12_16h43.20.623,dynamic target,2022.1.3,120.13924850522953,
1,6,3,2,mix,0,73,73,73,,,,,,,None,497.25040297673695,None,496.2596129114172,None,496.7508436373282,None,1,[0.008739447715925053],[0.5176341208534723],497.25040297673695,None,[1 0 0 1 0 3 3 0],space,0,2.2517614667885937,0.002520232224924257,None,497.2670675801455,None,1,499.52348361762415,None,None,500.02303917260906,None,,,,,,,,,,,,,,,,,,,,,,,,,,,,,,,,,,,,,,,,,,,,,,21_HXY,21,23,F,2022-12-12_16h43.20.623,dynamic target,2022.1.3,120.13924850522953,
1,5,2,2,mix,0,74,74,74,,,,,,,None,501.05548955980703,None,500.0813438929363,None,500.55591867470866,None,1,[0.008692944233189337],[0.5173400264138763],501.05548955980703,None,[1 1 3 1 2 3 3 3],space,0,3.598132880168123,0.002785462434985675,None,501.0721400518123,None,1,504.66906613949686,None,None,505.16863259874845,None,,,,,,,,,,,,,,,,,,,,,,,,,,,,,,,,,,,,,,,,,,,,,,21_HXY,21,23,F,2022-12-12_16h43.20.623,dynamic target,2022.1.3,120.13924850522953,
1,4,1,2,mix,0,75,75,75,,,,,,,None,506.1927537310221,None,505.2102784885137,None,505.69318669448694,None,1,[0.00777089241091744],[0.5166658862617624],506.1927537310221,None,[1 2 3 1 1 0 0 0],space,0,2.348926486163691,0.0025157422278425656,None,506.2094253901305,None,1,508.5574135211609,None,None,509.056979018269,None,,,,,,,,,,,,,,,,,,,,,,,,,,,,,,,,,,,,,,,,,,,,,,21_HXY,21,23,F,2022-12-12_16h43.20.623,dynamic target,2022.1.3,120.13924850522953,
1,3,2,2,mix,0,76,76,76,,,,,,,None,510.08942305533674,None,509.1152632129233,None,509.58153022758415,None,1,[0.009614033915568143],[0.5165674271629541],510.08942305533674,None,[2 0 0 0 1 1 3 0],space,0,2.2363835666583327,0.003024394125532126,None,510.0977573775381,None,1,512.3375104151746,None,None,512.837081685133,None,,,,,,,,,,,,,,,,,,,,,,,,,,,,,,,,,,,,,,,,,,,,,,21_HXY,21,23,F,2022-12-12_16h43.20.623,dynamic target,2022.1.3,120.13924850522953,
0,2,1,2,mix,0,77,77,77,,,,,,,None,513.8611816503035,None,512.8787198777682,513.8778526679853,513.3616155759082,None,2,"[0.008628801500890404, 0.833403676533635]","[0.44993210491520585, 1.3415437103903969]",513.8611816503035,None,[1 1 3 2 2 2 0 3],space,0,2.512776217696228,0.00289546722342493,None,514.702152245347,None,1,517.2166584457045,None,None,517.7162351677925,None,,,,,,,,,,,,,,,,,,,,,,,,,,,,,,,,,,,,,,,,,,,,,,21_HXY,21,23,F,2022-12-12_16h43.20.623,dynamic target,2022.1.3,120.13924850522953,
0,1,4,2,mix,0,78,78,78,,,,,,,None,518.7403604693463,None,517.7578643804482,None,518.2407915085278,None,1,[0.00866568357378128],[0.5174769711557019],518.7403604693463,None,[2 2 3 1 1 2 2 3],space,0,2.9365454629223677,0.0026289541565347463,None,518.7570035849385,None,1,521.696163558845,None,None,522.1957418844995,None,,,,,,,,,,,,,,,,,,,,,,,,,,,,,,,,,,,,,,,,,,,,,,21_HXY,21,23,F,2022-12-12_16h43.20.623,dynamic target,2022.1.3,120.13924850522953,
1,8,3,2,mix,0,79,79,79,,,,,,,None,523.2198549989298,None,522.2457725126551,None,522.7202834724048,None,1,[0.00822887154208729],[0.5172008366753289],523.2198549989298,None,[3 2 0 1 3 3 3 3],space,0,1.5297717976209242,0.0025394750373379793,None,523.2365080566487,None,1,524.7685486359078,None,None,525.2681170194392,None,,,,,,,,,,,,,,,,,,,,,,,,,,,,,,,,,,,,,,,,,,,,,,21_HXY,21,23,F,2022-12-12_16h43.20.623,dynamic target,2022.1.3,120.13924850522953,
0,7,4,2,mix,0,80,80,80,,,,,,,None,526.3005494466706,None,525.309755212078,526.3088905680015,525.8009933144021,None,2,"[0.00867819140694337, 0.7836699651015806]","[0.36660716358892387, 1.2913917883197428]",526.3005494466706,None,[0 2 1 0 0 1 3 2],space,0,1.6754447607490874,0.002877827973861713,None,527.0915496435919,None,0,528.7734411230631,None,None,529.273021373001,None,,,,,,,,,,,,,,,,,,,,,,,,,,,,,,,,,,,,,,,,,,,,,,21_HXY,21,23,F,2022-12-12_16h43.20.623,dynamic target,2022.1.3,120.13924850522953,
1,6,3,2,mix,0,81,81,81,,,,,,,None,530.2971389774248,None,529.3313241690448,530.3304550349785,529.7975732237428,None,3,"[0.1164261207159143, 0.8422293962285039, 1.5577066534606274]","[0.4411461537129071, 1.2160093212223728, 2.0651882621350524]",530.2971389774248,None,[1 2 0 3 1 2 2 1],space,0,2.2795804919078364,0.00305197549823788,None,531.8624741264248,None,1,534.1438551580068,None,None,534.6434312386646,None,,,,,,,,,,,,,,,,,,,,,,,,,,,,,,,,,,,,,,,,,,,,,,21_HXY,21,23,F,2022-12-12_16h43.20.623,dynamic target,2022.1.3,120.13924850522953,
1,5,2,2,mix,0,82,82,82,,,,,,,None,535.6675385802519,None,534.6767590984855,535.6758902851325,535.1679802029867,None,1,[0.02519815294726868],[0.5255384301599406],535.6675385802519,None,[3 0 2 3 3 3 0 2],space,0,2.544987095920078,0.002669364086614223,None,535.692532759298,None,1,538.2403354536764,None,None,538.7399362292908,None,,,,,,,,,,,,,,,,,,,,,,,,,,,,,,,,,,,,,,,,,,,,,,21_HXY,21,23,F,2022-12-12_16h43.20.623,dynamic target,2022.1.3,120.13924850522953,
1,3,4,0,mix,0,83,83,83,,,,,,,None,539.764033308038,None,538.7732239999023,None,539.2644781379095,None,1,[0.009041239289217629],[0.5176867178997782],539.764033308038,None,[1 0 2 1 2 0 1 2],space,0,2.2011704876967997,0.0023880981862021144,None,539.7807165128397,None,1,541.9871339293895,None,None,542.4867324600073,None,,,,,,,,,,,,,,,,,,,,,,,,,,,,,,,,,,,,,,,,,,,,,,21_HXY,21,23,F,2022-12-12_16h43.20.623,dynamic target,2022.1.3,120.13924850522953,
1,2,4,2,mix,0,84,84,84,,,,,,,None,543.5191732257954,None,542.5283472405463,543.5275197992596,543.0195888707203,None,3,"[0.1330410135051352, 0.16642666592815658, 0.9337068792410719]","[0.15797072910208954, 0.5076759611620218, 1.4408674535261525]",543.5191732257954,None,[1 0 1 3 3 0 3 2],space,0,6.977166095202847,0.0026995111657015514,None,544.4600499800181,None,1,551.437382257991,None,None,551.9369570557956,None,,,,,,,,,,,,,,,,,,,,,,,,,,,,,,,,,,,,,,,,,,,,,,21_HXY,21,23,F,2022-12-12_16h43.20.623,dynamic target,2022.1.3,120.13924850522953,
0,7,3,0,mix,0,85,85,85,,,,,,,None,552.9610865266259,None,551.9869331626287,552.9860739706855,552.4615124343909,None,2,"[0.05813801335898461, 0.0748725323464896]","[0.06715551983506884, 0.5751165954570752]",552.9610865266259,None,[3 3 1 1 0 1 1 1],space,0,3.456300463327352,0.0028409458973328583,None,553.0360199945717,None,1,556.4913955727388,None,None,556.9910027626265,None,,,,,,,,,,,,,,,,,,,,,,,,,,,,,,,,,,,,,,,,,,,,,,21_HXY,21,23,F,2022-12-12_16h43.20.623,dynamic target,2022.1.3,120.13924850522953,
0,6,1,2,mix,0,86,86,86,,,,,,,None,558.0234210784583,None,557.0410058094058,None,557.5238556454897,None,1,[0.008643554327136371],[0.5173506099636143],558.0234210784583,None,[1 3 1 3 3 2 2 1],space,0,2.276606193263433,0.00275820176830166,None,558.0400625904804,None,1,560.3214683170154,None,None,560.821032210557,None,,,,,,,,,,,,,,,,,,,,,,,,,,,,,,,,,,,,,,,,,,,,,,21_HXY,21,23,F,2022-12-12_16h43.20.623,dynamic target,2022.1.3,120.13924850522953,
0,5,4,2,mix,0,87,87,87,,,,,,,None,561.8534893327414,None,560.8626697617656,None,561.3539101090864,None,1,[0.016032156036089873],[0.5167319532811234],561.8534893327414,None,[1 1 0 2 2 0 3 0],space,0,2.3014948575109884,0.002554548584157601,None,561.8701459183103,None,1,564.176478474019,None,None,564.6760593653835,None,,,,,,,,,,,,,,,,,,,,,,,,,,,,,,,,,,,,,,,,,,,,,,21_HXY,21,23,F,2022-12-12_16h43.20.623,dynamic target,2022.1.3,120.13924850522953,
1,6,3,1,mix,0,88,88,88,,,,,,,None,565.7085145632882,None,564.7344083442003,None,565.2089577895895,None,1,[0.009391137911734404],[0.5174811404322099],565.7085145632882,None,[0 1 3 1 3 2 0 2],space,0,1.8232042870695295,0.0025426821775909048,None,565.7251711488534,None,1,567.5486173071222,None,None,568.0481767106703,None,,,,,,,,,,,,,,,,,,,,,,,,,,,,,,,,,,,,,,,,,,,,,,21_HXY,21,23,F,2022-12-12_16h43.20.623,dynamic target,2022.1.3,120.13924850522953,
1,1,2,0,mix,0,89,89,89,,,,,,,None,569.0806322292883,None,568.0898136204523,569.0889573149325,568.5810674377462,None,2,"[0.15809195887413807, 0.8995171976312122]","[0.508107321060379, 1.407793855512864]",569.0806322292883,None,[2 0 1 1 2 3 3 1],space,0,2.4879664490144933,0.002820740937750088,None,569.9882047923602,None,1,572.4777341322078,None,None,572.9772996293195,None,,,,,,,,,,,,,,,,,,,,,,,,,,,,,,,,,,,,,,,,,,,,,,21_HXY,21,23,F,2022-12-12_16h43.20.623,dynamic target,2022.1.3,120.13924850522953,
1,8,1,2,mix,0,90,90,90,,,,,,,None,574.0097577136439,None,573.0356296860264,574.0347304048737,573.5101788107022,None,2,"[0.008643233613838675, 0.45817797428389895]","[0.27489074888580944, 0.958420433824358]",574.0097577136439,None,[0 1 2 0 0 1 2 0],space,0,3.5117515374950017,0.002664874089532532,None,574.467676871991,None,1,577.9813521032083,None,None,578.4809310702931,None,,,,,,,,,,,,,,,,,,,,,,,,,,,,,,,,,,,,,,,,,,,,,,21_HXY,21,23,F,2022-12-12_16h43.20.623,dynamic target,2022.1.3,120.13924850522953,
0,7,3,2,mix,0,91,91,91,,,,,,,None,579.5133751073572,None,578.5225734322084,None,579.0054851660279,None,1,[0.008732712729397463],[0.5164494045311585],579.5133751073572,None,[0 1 1 0 0 3 0 1],space,0,1.5773531995619123,0.0027235646921326406,None,579.5217100709851,None,0,581.1036816005908,None,None,581.6032628126723,None,,,,,,,,,,,,,,,,,,,,,,,,,,,,,,,,,,,,,,,,,,,,,,21_HXY,21,23,F,2022-12-12_16h43.20.623,dynamic target,2022.1.3,120.13924850522953,
0,6,3,2,mix,0,92,92,92,,,,,,,None,582.6274022256257,None,581.6365749575198,582.6357109548735,582.1278348683736,None,2,"[0.008697113513335353, 0.8000420776334067]","[0.15841652111703297, 1.3000982025296253]",582.6274022256257,None,[0 1 1 2 2 1 3 3],space,0,3.287844641959964,0.0025266464981541503,None,583.4267021718078,None,1,586.7238876527153,None,None,587.2234448112704,None,,,,,,,,,,,,,,,,,,,,,,,,,,,,,,,,,,,,,,,,,,,,,,21_HXY,21,23,F,2022-12-12_16h43.20.623,dynamic target,2022.1.3,120.13924850522953,
0,7,3,1,mix,0,93,93,93,,,,,,,None,588.2559044991649,None,587.265071137499,None,587.7563554225926,None,1,[0.009411022158019478],[0.5175626017044124],588.2559044991649,None,[0 1 2 0 1 3 3 2],space,0,4.153955982201296,0.0024762944522080943,None,588.2725360690638,None,1,592.4273288463337,None,None,592.9269244905281,None,,,,,,,,,,,,,,,,,,,,,,,,,,,,,,,,,,,,,,,,,,,,,,21_HXY,21,23,F,2022-12-12_16h43.20.623,dynamic target,2022.1.3,120.13924850522953,
1,6,1,2,mix,0,94,94,94,,,,,,,None,593.9510311906888,None,592.9602196375563,593.9593694255964,593.4514603055868,None,2,"[0.058207287514960626, 0.11633600017739809]","[0.09969256386830239, 0.6167779436254932]",593.9510311906888,None,[1 2 1 1 0 2 0 2],space,0,2.8230974894140672,0.002823306647769641,None,594.0675881625866,None,1,596.8901844296088,None,None,597.3897579445565,None,,,,,,,,,,,,,,,,,,,,,,,,,,,,,,,,,,,,,,,,,,,,,,21_HXY,21,23,F,2022-12-12_16h43.20.623,dynamic target,2022.1.3,120.13924850522953,
1,7,1,1,mix,0,95,95,95,,,,,,,None,598.4138928675202,None,597.4313541237025,None,597.914309795302,None,1,[0.008613727954070782],[0.5169795442379836],598.4138928675202,None,[1 3 0 2 0 1 2 2],space,0,2.1723258202364377,0.002763012482319027,None,598.4305125710125,None,1,600.6036662063343,None,None,601.1032252891728,None,,,,,,,,,,,,,,,,,,,,,,,,,,,,,,,,,,,,,,,,,,,,,,21_HXY,21,23,F,2022-12-12_16h43.20.623,dynamic target,2022.1.3,120.13924850522953,
0,8,2,1,mix,0,96,96,96,,,,,,,None,602.1273589292759,None,601.1365451311503,None,601.6278278126738,None,1,[0.008651892883790424],[0.5169631878416112],602.1273589292759,None,[0 3 0 1 2 0 3 0],space,0,3.8822499201342,0.003113231810857542,None,602.1440514347778,None,1,606.0240394144275,None,None,606.523628965062,None,,,,,,,,,,,,,,,,,,,,,,,,,,,,,,,,,,,,,,,,,,,,,,21_HXY,21,23,F,2022-12-12_16h43.20.623,dynamic target,2022.1.3,120.13924850522953,
1,7,3,2,mix,0,97,97,97,,,,,,,None,607.5560533744538,None,606.5736262389983,None,607.0564911486217,None,1,[0.008631046493974281],[0.5174301469560305],607.5560533744538,None,[0 1 2 1 0 2 2 2],space,0,2.4526693430671003,0.0023415947034663986,None,607.5726996971825,None,1,610.0289328637227,None,None,610.5285201693605,None,,,,,,,,,,,,,,,,,,,,,,,,,,,,,,,,,,,,,,,,,,,,,,21_HXY,21,23,F,2022-12-12_16h43.20.623,dynamic target,2022.1.3,120.13924850522953,
0,6,3,2,mix,0,98,98,98,,,,,,,None,611.5609779329752,None,610.5701343084729,None,611.0613964643235,None,1,[0.009214103960403008],[0.5179561173863476],611.5609779329752,None,[1 3 2 3 2 2 2 2],space,0,2.3199365354048496,0.0022229306487133726,None,611.5776306699772,None,1,613.900634564081,None,None,614.4002083997457,None,,,,,,,,,,,,,,,,,,,,,,,,,,,,,,,,,,,,,,,,,,,,,,21_HXY,21,23,F,2022-12-12_16h43.20.623,dynamic target,2022.1.3,120.13924850522953,
1,5,3,2,mix,0,99,99,99,,,,,,,None,615.4326722569203,None,614.450174885169,None,614.9330859775619,None,1,[0.009360670112073421],[0.5177402770823392],615.4326722569203,None,[1 0 0 0 0 1 2 0],space,0,2.8638893827992433,0.0025102900981437415,None,615.4493031853926,None,1,618.3135271256433,None,None,618.8130868499047,None,,,,,,,,,,,,,,,,,,,,,,,,,,,,,,,,,,,,,,,,,,,,,,21_HXY,21,23,F,2022-12-12_16h43.20.623,dynamic target,2022.1.3,120.13924850522953,
1,8,2,0,mix,0,100,100,100,,,,,,,None,619.8455689877555,None,618.8547160625603,619.8538767548634,619.3459769355541,None,2,"[0.009564964726450853, 0.7590054797146877]","[0.4665223027514003, 1.2662366110052972]",619.8455689877555,None,[0 2 0 0 1 2 1 3],space,0,3.750533774833457,0.0032197087566601112,None,620.6115618563672,None,1,624.3666716270382,None,None,624.8662550841127,None,,,,,,,,,,,,,,,,,,,,,,,,,,,,,,,,,,,,,,,,,,,,,,21_HXY,21,23,F,2022-12-12_16h43.20.623,dynamic target,2022.1.3,120.13924850522953,
0,7,1,2,mix,0,101,101,101,,,,,,,None,625.8987041884575,None,624.9078782032084,625.9070225391151,625.399126568369,None,2,"[0.10831334752583643, 0.15877155115958885]","[0.14180226975440746, 0.6667332682081906]",625.8987041884575,None,[1 2 3 1 0 3 2 1],space,0,2.0398874277270806,0.0025388336107425857,None,626.0652357277613,None,0,628.1134627263345,None,None,628.6130468248393,None,,,,,,,,,,,,,,,,,,,,,,,,,,,,,,,,,,,,,,,,,,,,,,21_HXY,21,23,F,2022-12-12_16h43.20.623,dynamic target,2022.1.3,120.13924850522953,
1,6,3,2,mix,0,102,102,102,,,,,,,None,629.6455004191739,None,628.6546805274847,629.653812034845,629.1459304962154,None,3,"[0.009371895092044724, 0.02517538227402838, 0.6832641340115515]","[0.016808924563520122, 0.3831534236524021, 1.1916867166182783]",629.6455004191739,None,[3 3 2 2 3 1 0 0],space,0,2.408774544852349,0.0028925808001076803,None,630.3365957397655,None,1,632.751216306624,None,None,633.2507320931127,None,,,,,,,,,,,,,,,,,,,,,,,,,,,,,,,,,,,,,,,,,,,,,,21_HXY,21,23,F,2022-12-12_16h43.20.623,dynamic target,2022.1.3,120.13924850522953,
1,5,1,2,mix,0,103,103,103,,,,,,,None,634.2748666953594,None,633.284045520817,634.2831904981504,633.7752999795375,None,3,"[0.008627839360997314, 0.15847264600961353, 0.20007818999511073]","[0.016813414556963835, 0.19175919791086926, 0.7001060920847522]",634.2748666953594,None,[2 0 3 2 1 1 0 2],space,0,2.7507611608307343,0.0030654454785690177,None,634.4747104436537,None,1,637.2223350778004,None,None,637.7219355327015,None,,,,,,,,,,,,,,,,,,,,,,,,,,,,,,,,,,,,,,,,,,,,,,21_HXY,21,23,F,2022-12-12_16h43.20.623,dynamic target,2022.1.3,120.13924850522953,
0,4,1,2,mix,0,104,104,104,,,,,,,None,638.7543753363498,None,637.7719360137708,638.7710341669117,638.2547951505512,None,2,"[0.009108589161769487, 0.7334298467685585]","[0.5006173738293, 1.2413790559839981]",638.7543753363498,None,[2 3 2 0 3 1 1 3],space,0,2.2097681799677957,0.0030766704512643628,None,639.4953984001513,None,1,641.7018536609139,None,None,642.2014194787389,None,,,,,,,,,,,,,,,,,,,,,,,,,,,,,,,,,,,,,,,,,,,,,,21_HXY,21,23,F,2022-12-12_16h43.20.623,dynamic target,2022.1.3,120.13924850522953,
1,3,1,2,mix,0,105,105,105,,,,,,,None,643.2338898143262,None,642.2430621613676,None,642.7342813415817,None,1,[0.008621104370831745],[0.5089649094334163],643.2338898143262,None,[1 3 1 2 3 1 0 1],space,0,2.990148584874987,0.0027251682586211246,None,643.2422039315643,None,1,646.231317626487,None,None,646.730877350752,None,,,,,,,,,,,,,,,,,,,,,,,,,,,,,,,,,,,,,,,,,,,,,,21_HXY,21,23,F,2022-12-12_16h43.20.623,dynamic target,2022.1.3,120.13924850522953,
1,2,3,2,mix,0,106,106,106,,,,,,,None,647.7633341522233,None,646.7725267683672,647.771648975031,647.2637623049814,None,2,"[0.008653496450278908, 0.8174423982200096]","[0.3090756197962037, 1.3245680147119856]",647.7633341522233,None,[3 0 0 1 2 1 1 3],space,0,2.0604503058893897,0.0031241360775311477,None,648.5876314845882,None,1,650.6441992837827,None,None,651.1437609323275,None,,,,,,,,,,,,,,,,,,,,,,,,,,,,,,,,,,,,,,,,,,,,,,21_HXY,21,23,F,2022-12-12_16h43.20.623,dynamic target,2022.1.3,120.13924850522953,
1,1,3,2,mix,0,107,107,107,,,,,,,None,652.1679093252642,None,651.1770884714315,652.1762113195255,651.6683326673192,None,3,"[0.008637781480501872, 0.233393606122263, 0.2750575199970626]","[0.08385700531653129, 0.26668625157981296, 0.7760151710390346]",652.1679093252642,None,[3 1 2 1 1 0 0 0],space,0,2.444439188668184,0.002225817064754665,None,652.4426644122614,None,1,654.8905795488572,None,None,655.3901286895689,None,,,,,,,,,,,,,,,,,,,,,,,,,,,,,,,,,,,,,,,,,,,,,,21_HXY,21,23,F,2022-12-12_16h43.20.623,dynamic target,2022.1.3,120.13924850522953,
1,8,3,2,mix,0,108,108,108,,,,,,,None,656.4226024888667,None,655.4484452763027,656.4475575408433,655.9230184545049,None,2,"[0.009464581344218459, 0.7513477992324624]","[0.44982562797304126, 1.2581783591413114]",656.4226024888667,None,[3 3 0 1 1 0 1 1],space,0,2.971941027964931,0.0028762244037352502,None,657.1802946460703,None,1,660.1527139112113,None,None,660.652307631126,None,,,,,,,,,,,,,,,,,,,,,,,,,,,,,,,,,,,,,,,,,,,,,,21_HXY,21,23,F,2022-12-12_16h43.20.623,dynamic target,2022.1.3,120.13924850522953,
0,7,4,2,mix,0,109,109,109,,,,,,,None,661.684760263317,None,660.7022580808625,661.7014113967525,661.1851845675155,None,3,"[0.008083588247245643, 0.3913729944979423, 0.6000386139276088]","[0.2244335073955881, 0.4663773401698563, 1.1076266995441983]",661.684760263317,None,[0 3 3 3 0 0 3 1],space,0,2.1626848463674833,0.0029634585189342033,None,662.2925514889757,None,1,664.4573810007932,None,None,664.9569776071276,None,,,,,,,,,,,,,,,,,,,,,,,,,,,,,,,,,,,,,,,,,,,,,,21_HXY,21,23,F,2022-12-12_16h43.20.623,dynamic target,2022.1.3,120.13924850522953,
1,6,2,2,mix,0,110,110,110,,,,,,,None,665.9894177314891,None,665.0152525010853,666.0143884984391,665.4898346592709,None,2,"[0.008652213597088121, 0.7672895140094624]","[0.4165288132353453, 1.275031862904143]",665.9894177314891,None,[1 3 0 0 1 2 0 2],space,0,4.347546775923547,0.002551662160840351,None,666.7637411378782,None,1,671.1100278828453,None,None,671.609590814247,None,,,,,,,,,,,,,,,,,,,,,,,,,,,,,,,,,,,,,,,,,,,,,,21_HXY,21,23,F,2022-12-12_16h43.20.623,dynamic target,2022.1.3,120.13924850522953,
1,5,3,2,mix,0,111,111,111,,,,,,,None,672.6420508228548,None,671.65955152682,None,672.14245844994,None,1,[0.008654779307107674],[0.5175407931783411],672.6420508228548,None,[2 1 1 1 0 0 1 0],space,0,3.0119481349793205,0.0026299162964278366,None,672.6587141434102,None,1,675.6727864181594,None,None,676.1723608952507,None,,,,,,,,,,,,,,,,,,,,,,,,,,,,,,,,,,,,,,,,,,,,,,21_HXY,21,23,F,2022-12-12_16h43.20.623,dynamic target,2022.1.3,120.13924850522953,
1,4,2,2,mix,0,112,112,112,,,,,,,None,677.2048138481587,None,676.2306941590978,677.2297948779451,676.7052423216337,None,2,"[0.008611803674284602, 0.3582246701953409]","[0.20864830088976305, 0.8584741854356253]",677.2048138481587,None,[3 3 1 1 2 0 2 2],space,0,2.4436944915105414,0.002958006389235379,None,677.5628322994598,None,1,680.0107596231755,None,None,680.5103196681503,None,,,,,,,,,,,,,,,,,,,,,,,,,,,,,,,,,,,,,,,,,,,,,,21_HXY,21,23,F,2022-12-12_16h43.20.623,dynamic target,2022.1.3,120.13924850522953,
0,3,4,2,mix,0,113,113,113,,,,,,,None,681.5427787146182,None,680.5519668407724,None,681.0431972459664,None,1,[0.009084214922040701],[0.517723599972669],681.5427787146182,None,[0 3 3 3 2 2 3 1],space,0,2.174783769860369,0.0024653901818965096,None,681.5594227923502,None,1,683.7325924633551,None,None,684.2321204369637,None,,,,,,,,,,,,,,,,,,,,,,,,,,,,,,,,,,,,,,,,,,,,,,21_HXY,21,23,F,2022-12-12_16h43.20.623,dynamic target,2022.1.3,120.13924850522953,
1,4,4,1,mix,0,114,114,114,,,,,,,None,685.2562614534872,None,684.2654252054017,None,684.7566812676923,None,1,[0.0086945478033158],[0.5176642679434735],685.2562614534872,None,[0 0 0 3 1 1 0 0],space,0,3.5168403014213254,0.002471483745466685,None,685.2728917405329,None,0,688.8032322165855,None,None,689.3028044486837,None,,,,,,,,,,,,,,,,,,,,,,,,,,,,,,,,,,,,,,,,,,,,,,21_HXY,21,23,F,2022-12-12_16h43.20.623,dynamic target,2022.1.3,120.13924850522953,
0,3,4,2,mix,0,115,115,115,,,,,,,None,690.3352407244784,None,689.344410890666,690.3435664515528,689.8356817057866,None,5,"[0.008647082180686994, 0.02520809507041122, 0.7673716167118982, 1.5328879047956434, 2.2576289766111586]","[0.017761444185453, 0.24168180969718378, 1.2000217443892325, 1.9829854979689117, 2.7648713328817394]",690.3352407244784,None,[3 2 0 0 1 3 1 1],space,0,2.6706523362627195,0.00330437716547749,None,692.599977357615,None,1,695.281049092926,None,None,695.780567765838,None,,,,,,,,,,,,,,,,,,,,,,,,,,,,,,,,,,,,,,,,,,,,,,21_HXY,21,23,F,2022-12-12_16h43.20.623,dynamic target,2022.1.3,120.13924850522953,
1,2,4,2,mix,0,116,116,116,,,,,,,None,696.8130303401558,None,695.830539703391,696.8296965471309,696.3134584929139,None,5,"[0.025243694286473328, 0.09179723454872146, 0.23338911613245727, 0.2756797045331041, 1.0673235737995128]","[0.08414115763298469, 0.10878383449016837, 0.26674590432594414, 0.7674954121903284, 1.5747214762050135]",696.8130303401558,None,[1 2 1 1 2 3 0 1],space,0,8.134398220707226,0.0027780860182247125,None,697.8871212932718,None,1,706.0218094922275,None,None,706.5213939114419,None,,,,,,,,,,,,,,,,,,,,,,,,,,,,,,,,,,,,,,,,,,,,,,21_HXY,21,23,F,2022-12-12_16h43.20.623,dynamic target,2022.1.3,120.13924850522953,
0,1,3,2,mix,0,117,117,117,,,,,,,None,707.5455240236988,None,706.554720809123,707.5538446193532,707.0459569871637,None,1,[0.12477365632003057],[0.6251748691320245],707.5455240236988,None,[3 0 2 2 3 1 0 3],space,0,2.558302807105065,0.0026251056006003637,None,707.6704195512175,None,1,710.2265518212371,None,None,710.7261384854482,None,,,,,,,,,,,,,,,,,,,,,,,,,,,,,,,,,,,,,,,,,,,,,,21_HXY,21,23,F,2022-12-12_16h43.20.623,dynamic target,2022.1.3,120.13924850522953,
0,8,1,2,mix,0,118,118,118,,,,,,,None,711.7585879105063,None,710.7677789230802,711.7669081854474,711.2590093282779,None,2,"[0.008660552153742174, 0.7421259981383628]","[0.24183350726525532, 1.250039928851038]",711.7585879105063,None,[3 3 2 3 0 3 3 2],space,0,3.001013722849166,0.0026744955030153506,None,712.5079466435054,None,1,715.5137079440137,None,None,716.0132657439954,None,,,,,,,,,,,,,,,,,,,,,,,,,,,,,,,,,,,,,,,,,,,,,,21_HXY,21,23,F,2022-12-12_16h43.20.623,dynamic target,2022.1.3,120.13924850522953,
0,7,2,2,mix,0,119,119,119,,,,,,,None,717.045730242593,None,716.0632421715381,717.0624067124081,716.5461362661081,None,3,"[0.05021991336616338, 0.09140917100012302, 0.916210985982616]","[0.08309659318547347, 0.5667376299097668, 1.4239395441873057]",717.045730242593,None,[3 1 3 0 3 3 3 3],space,0,3.3636876538948854,0.003214898049918702,None,717.9699600326603,None,1,721.3337481230228,None,space,721.8416341516458,None,10.85589238724424,,,,,,,,,,,,,,,,,,,,,,,,,,,,,,,,,,,,,,,,,,,,,21_HXY,21,23,F,2022-12-12_16h43.20.623,dynamic target,2022.1.3,120.13924850522953,
0,6,2,2,mix,0,120,120,120,,,,,,,None,733.7397742047433,None,732.7489514266308,733.7480992903875,733.2402100546315,None,2,"[0.02479694013527478, 0.049743332845537225]","[0.04176269368690555, 0.5503254281684349]",733.7397742047433,None,[1 0 1 1 0 0 2 1],space,0,2.0061926073176437,0.0026289541565347463,None,733.7897314536094,None,1,735.7963631710372,None,None,736.2959379688418,None,,,,,,,,,,,,,,,,,,,,,,,,,,,,,,,,,,,,,,,,,,,,,,21_HXY,21,23,F,2022-12-12_16h43.20.623,dynamic target,2022.1.3,120.13924850522953,
0,5,1,2,mix,0,121,121,121,,,,,,,None,737.3283630196602,None,736.345938770628,737.3450305094921,736.8287902102784,None,3,"[0.03311400793973007, 0.05809086844601552, 0.5584866291246726]","[0.04980170273120166, 0.42443985752470326, 1.0661975480797992]",737.3283630196602,None,[3 1 3 1 1 2 1 1],space,0,2.3653678728551313,0.0025628871444496326,None,737.8945743584263,None,1,740.2591898900791,None,None,740.7588124742233,None,,,,,,,,,,,,,,,,,,,,,,,,,,,,,,,,,,,,,,,,,,,,,,21_HXY,21,23,F,2022-12-12_16h43.20.623,dynamic target,2022.1.3,120.13924850522953,
1,4,4,2,mix,0,122,122,122,,,,,,,None,741.791212830085,None,740.8171271366737,741.8162050848514,741.2916461142631,None,1,[0.12477397703696624],[0.6249692916680942],741.791212830085,None,[2 1 1 2 3 1 2 0],space,0,2.5355048753226583,0.0025763571211427916,None,741.916105471184,None,1,744.455647864077,None,None,744.9551796862524,None,,,,,,,,,,,,,,,,,,,,,,,,,,,,,,,,,,,,,,,,,,,,,,21_HXY,21,23,F,2022-12-12_16h43.20.623,dynamic target,2022.1.3,120.13924850522953,
1,5,3,1,mix,0,123,123,123,,,,,,,None,745.9876220556071,None,745.0051458509588,746.0042901868655,745.4880434733786,None,3,"[0.008744258426304441, 0.8001453474389564, 1.5328314591897652]","[0.31659635554024135, 1.1337045701075112, 2.0404910639554146]",745.9876220556071,None,[0 0 3 0 1 2 0 1],space,0,2.5878052583175304,0.0032383101497543976,None,747.527979061244,None,1,750.117429633814,None,None,750.6170102044689,None,,,,,,,,,,,,,,,,,,,,,,,,,,,,,,,,,,,,,,,,,,,,,,21_HXY,21,23,F,2022-12-12_16h43.20.623,dynamic target,2022.1.3,120.13924850522953,
0,8,1,0,mix,0,124,124,124,,,,,,,None,751.6494577052435,None,750.6669927255716,None,751.1499031765416,None,1,[0.008802307598671177],[0.5169230986321054],751.6494577052435,None,[2 2 3 1 0 0 2 1],space,0,2.7533714494529704,0.0030641626217402518,None,751.6660979344124,None,1,754.4220874226994,None,None,754.9216602962242,None,,,,,,,,,,,,,,,,,,,,,,,,,,,,,,,,,,,,,,,,,,,,,,21_HXY,21,23,F,2022-12-12_16h43.20.623,dynamic target,2022.1.3,120.13924850522953,
1,7,4,2,mix,0,125,125,125,,,,,,,None,755.9541113248488,None,754.9799781658112,None,755.4545288940571,None,1,[0.009517499100184068],[0.5175741473976814],755.9541113248488,None,[1 2 3 2 3 3 1 0],space,0,2.880028977917391,0.0024846330052241683,None,755.9707461018843,None,1,758.8516307969803,None,None,759.3512027083616,None,,,,,,,,,,,,,,,,,,,,,,,,,,,,,,,,,,,,,,,,,,,,,,21_HXY,21,23,F,2022-12-12_16h43.20.623,dynamic target,2022.1.3,120.13924850522953,
1,2,4,0,mix,0,126,126,126,,,,,,,None,760.3836572648361,None,759.3928184510405,760.3919714462209,759.8840847761712,None,3,"[0.008652213597088121, 0.7837148650141899, 1.1003638175970991]","[0.4997989125222375, 0.9590086227071879, 1.6080676808487624]",760.3836572648361,None,[2 2 0 2 0 1 1 0],space,0,3.087367804862879,0.0026029763503174763,None,761.4910357319932,None,1,764.5800626417949,None,None,765.0796181967798,None,,,,,,,,,,,,,,,,,,,,,,,,,,,,,,,,,,,,,,,,,,,,,,21_HXY,21,23,F,2022-12-12_16h43.20.623,dynamic target,2022.1.3,120.13924850522953,
0,3,3,1,mix,0,127,127,127,,,,,,,None,766.1121000139174,None,765.121265369402,None,765.6125143759891,None,1,[0.009639691008487716],[0.5175343789014732],766.1121000139174,None,[0 2 1 2 3 1 3 0],space,0,1.9694413855613675,0.002602334920084104,None,766.1287472987897,None,1,768.102035697997,None,None,768.6016425671714,None,,,,,,,,,,,,,,,,,,,,,,,,,,,,,,,,,,,,,,,,,,,,,,21_HXY,21,23,F,2022-12-12_16h43.20.623,dynamic target,2022.1.3,120.13924850522953,
0,4,3,1,mix,0,128,128,128,,,,,,,None,769.6340653729931,None,768.6599351003788,769.6590579484728,769.1345002607413,None,2,"[0.008677549980347976, 0.9919215431727935]","[0.2084202734658902, 1.4994134146836586]",769.6340653729931,None,[3 2 0 0 0 2 0 0],space,0,2.872810995886539,0.002961854956083698,None,770.6331955975002,None,1,773.5057536033783,None,None,774.0053178176331,None,,,,,,,,,,,,,,,,,,,,,,,,,,,,,,,,,,,,,,,,,,,,,,21_HXY,21,23,F,2022-12-12_16h43.20.623,dynamic target,2022.1.3,120.13924850522953,
1,3,1,2,mix,0,129,129,129,,,,,,,None,775.0377778262409,None,774.0636481950532,None,774.5382104689925,None,1,[0.009451752794120694],[0.5176232165904366],775.0377778262409,None,[3 3 1 0 1 2 3 0],space,0,2.418994727620884,0.0025170250883093104,None,775.0544283182462,None,1,777.4773454272326,None,None,777.9769574278234,None,,,,,,,,,,,,,,,,,,,,,,,,,,,,,,,,,,,,,,,,,,,,,,21_HXY,21,23,F,2022-12-12_16h43.20.623,dynamic target,2022.1.3,120.13924850522953,
1,2,4,2,mix,0,130,130,130,,,,,,,None,779.0093853650651,None,778.0268912004503,779.026024632094,778.5098115935434,None,1,[0.03290714761533309],[0.5417197180540825],779.0093853650651,None,[1 2 0 0 0 2 2 3],space,0,2.67808198932471,0.0018646934659045655,None,779.0510168868568,None,1,781.732059437225,None,None,782.2316640614026,None,,,,,,,,,,,,,,,,,,,,,,,,,,,,,,,,,,,,,,,,,,,,,,21_HXY,21,23,F,2022-12-12_16h43.20.623,dynamic target,2022.1.3,120.13924850522953,
0,1,1,2,mix,0,131,131,131,,,,,,,None,783.2640794908075,None,782.2815846847661,783.2807293413898,782.7645111714191,None,2,"[0.12469411932761432, 0.15805988750435063]","[0.14974025398987578, 0.6584453853465675]",783.2640794908075,None,[1 3 2 0 3 2 2 1],space,0,2.451157498791872,0.0023361425701295957,None,783.4222686259272,None,1,785.8784956989075,None,None,786.3780730624221,None,,,,,,,,,,,,,,,,,,,,,,,,,,,,,,,,,,,,,,,,,,,,,,21_HXY,21,23,F,2022-12-12_16h43.20.623,dynamic target,2022.1.3,120.13924850522953,
0,8,3,2,mix,0,132,132,132,,,,,,,None,787.4105282603268,None,786.4196955400912,None,786.9109592995082,None,1,[0.016896800108952448],[0.5174076969997259],787.4105282603268,None,[0 2 2 2 1 0 3 2],space,0,4.109659971170913,0.0027396003788453527,None,787.4271710552057,None,1,791.5403271792638,None,None,792.0398962042254,None,,,,,,,,,,,,,,,,,,,,,,,,,,,,,,,,,,,,,,,,,,,,,,21_HXY,21,23,F,2022-12-12_16h43.20.623,dynamic target,2022.1.3,120.13924850522953,
0,7,2,2,mix,0,133,133,133,,,,,,,None,793.0723437050001,None,792.0981929067093,793.0973228105031,792.5727708956183,None,2,"[0.008691982093296247, 0.33334306164761074]","[0.1840675217754324, 0.8337394637528632]",793.0723437050001,None,[0 0 3 0 2 2 2 2],space,0,2.0036907199173584,0.0026488384064577986,None,793.405404538611,None,1,795.4120099575193,None,None,795.911589886744,None,,,,,,,,,,,,,,,,,,,,,,,,,,,,,,,,,,,,,,,,,,,,,,21_HXY,21,23,F,2022-12-12_16h43.20.623,dynamic target,2022.1.3,120.13924850522953,
0,6,4,2,mix,0,134,134,134,,,,,,,None,796.9440258418254,None,795.9615554100237,None,796.4444677852734,None,1,[0.009892092679365305],[0.5173217457377177],796.9440258418254,None,[1 0 1 0 3 0 3 2],space,0,2.4802276279697253,0.002649159123393474,None,796.9607324587269,None,1,799.4419020758505,None,None,799.9414717422387,None,,,,,,,,,,,,,,,,,,,,,,,,,,,,,,,,,,,,,,,,,,,,,,21_HXY,21,23,F,2022-12-12_16h43.20.623,dynamic target,2022.1.3,120.13924850522953,
0,5,4,2,mix,0,135,135,135,,,,,,,None,800.9739214880101,None,799.9914221919753,800.9905780735753,800.4743400193584,None,2,"[0.02475941663578851, 0.8001228974826518]","[0.4743724114377983, 1.3075413255610329]",800.9739214880101,None,[0 0 3 3 3 0 0 2],space,0,1.6270169954150333,0.0029820599193044472,None,801.7815593483865,None,1,803.4134977482681,None,None,803.9130837710527,None,,,,,,,,,,,,,,,,,,,,,,,,,,,,,,,,,,,,,,,,,,,,,,21_HXY,21,23,F,2022-12-12_16h43.20.623,dynamic target,2022.1.3,120.13924850522953,
0,4,2,2,mix,0,136,136,136,,,,,,,None,804.9455277439774,None,803.9630640471623,None,804.4459549345956,None,1,[0.008671777133713476],[0.5170738340602838],804.9455277439774,None,[1 3 1 3 2 1 2 0],space,0,2.190777760966739,0.003019583415152738,None,804.9621705388563,None,1,807.1519833254533,None,None,807.6515446532849,None,,,,,,,,,,,,,,,,,,,,,,,,,,,,,,,,,,,,,,,,,,,,,,21_HXY,21,23,F,2022-12-12_16h43.20.623,dynamic target,2022.1.3,120.13924850522953,
0,3,2,2,mix,0,137,137,137,,,,,,,None,808.6839818912231,None,807.7015226843978,None,808.1844090818413,None,1,[0.008171463796315948],[0.5170100120412826],808.6839818912231,None,[0 2 1 2 3 3 1 2],space,0,1.8755675299471477,0.0024573723421781324,None,808.7006253275285,None,1,810.5740460531997,None,None,811.0736250202845,None,,,,,,,,,,,,,,,,,,,,,,,,,,,,,,,,,,,,,,,,,,,,,,21_HXY,21,23,F,2022-12-12_16h43.20.623,dynamic target,2022.1.3,120.13924850522953,
1,2,4,2,mix,0,138,138,138,,,,,,,None,812.0977429454215,None,811.1069153566059,None,811.5981589110597,None,1,[0.008628160070657032],[0.517841301891167],812.0977429454215,None,[3 0 0 0 0 1 3 3],space,0,2.7171943051762355,0.0023444811267836485,None,812.1143947202836,None,1,814.8370505117637,None,None,815.3366541737978,None,,,,,,,,,,,,,,,,,,,,,,,,,,,,,,,,,,,,,,,,,,,,,,21_HXY,21,23,F,2022-12-12_16h43.20.623,dynamic target,2022.1.3,120.13924850522953,
0,1,3,2,mix,0,139,139,139,,,,,,,None,816.3690763381928,None,815.3782612572104,816.3774302880702,815.8695327137575,None,4,"[0.008669211423693923, 0.3998933947732439, 0.43320432091059047, 1.1584453853465675]","[0.22570994783382048, 0.42484716389662935, 0.8838724637171254, 1.6663272446930932]",816.3690763381928,None,[2 0 3 2 3 3 2 2],space,0,1.8568663946825836,0.0026311991532566026,None,817.534735857007,None,1,819.3915022421097,None,None,819.8910728706378,None,,,,,,,,,,,,,,,,,,,,,,,,,,,,,,,,,,,,,,,,,,,,,,21_HXY,21,23,F,2022-12-12_16h43.20.623,dynamic target,2022.1.3,120.13924850522953,
1,8,2,2,mix,0,140,140,140,,,,,,,None,820.9235097878591,None,819.9410323003576,None,820.4239562213006,None,1,[0.00926862528649508],[0.5174420133662352],820.9235097878591,None,[1 1 1 1 1 2 2 3],space,0,2.5476528680082993,0.0024775773017609026,None,820.9401766362644,None,1,823.4879876691994,None,None,823.987575295554,None,,,,,,,,,,,,,,,,,,,,,,,,,,,,,,,,,,,,,,,,,,,,,,21_HXY,21,23,F,2022-12-12_16h43.20.623,dynamic target,2022.1.3,120.13924850522953,
0,2,4,0,mix,0,141,141,141,,,,,,,None,825.0283395434199,None,824.045879695168,None,824.5287725068847,None,1,[0.009366442958707921],[0.517473764019087],825.0283395434199,None,[0 0 1 1 0 3 2 2],space,0,2.7309343205561163,0.0027033597325498704,None,825.0450054296816,None,1,827.7760039460591,None,None,828.2755453896443,None,,,,,,,,,,,,,,,,,,,,,,,,,,,,,,,,,,,,,,,,,,,,,,21_HXY,21,23,F,2022-12-12_16h43.20.623,dynamic target,2022.1.3,120.13924850522953,
1,1,4,2,mix,0,142,142,142,,,,,,,None,829.3080320174886,None,828.3255798663631,829.3246619838174,828.8084367581469,None,1,[0.08311423244231264],[0.5832511771805002],829.3080320174886,None,[3 3 0 0 0 2 0 3],space,0,2.17720836526496,0.002881676537072053,None,829.3912613861357,None,1,831.5727182985756,None,None,832.0722950206637,None,,,,,,,,,,,,,,,,,,,,,,,,,,,,,,,,,,,,,,,,,,,,,,21_HXY,21,23,F,2022-12-12_16h43.20.623,dynamic target,2022.1.3,120.13924850522953,
1,8,1,2,mix,0,143,143,143,,,,,,,None,833.1047537464146,None,832.113939948289,833.1130948677455,832.6051950484361,None,2,"[0.008747786272579106, 0.7509818649232329]","[0.4415826450276654, 1.2582710453898471]",833.1047537464146,None,[1 3 0 3 1 3 3 3],space,0,2.7605788479304465,0.002607787053420907,None,833.8624519971781,None,1,836.6267575911334,None,None,837.1263208432447,None,,,,,,,,,,,,,,,,,,,,,,,,,,,,,,,,,,,,,,,,,,,,,,21_HXY,21,23,F,2022-12-12_16h43.20.623,dynamic target,2022.1.3,120.13924850522953,
0,7,4,2,mix,0,144,144,144,,,,,,,None,838.1587837382758,None,837.1846505792419,None,837.6592125324642,None,1,[0.009377667938679224],[0.5177104507129116],838.1587837382758,None,[3 1 0 1 1 3 2 1],space,0,1.6467719958200178,0.0023813631996745244,None,838.1754284574381,None,0,839.832337944983,None,None,840.3319236470543,None,,,,,,,,,,,,,,,,,,,,,,,,,,,,,,,,,,,,,,,,,,,,,,21_HXY,21,23,F,2022-12-12_16h43.20.623,dynamic target,2022.1.3,120.13924850522953,
0,8,3,1,mix,0,145,145,145,,,,,,,None,841.3643692235455,None,840.3902123316984,None,840.864794169167,None,1,[0.0077436317478714045],[0.5163724332451238],841.3643692235455,None,[3 1 0 2 0 2 0 2],space,0,5.737307542764029,0.0028592265844054054,None,841.3810113769978,None,1,847.1177782495834,None,None,847.6173511231082,None,,,,,,,,,,,,,,,,,,,,,,,,,,,,,,,,,,,,,,,,,,,,,,21_HXY,21,23,F,2022-12-12_16h43.20.623,dynamic target,2022.1.3,120.13924850522953,
0,7,2,2,mix,0,146,146,146,,,,,,,None,848.6498034345859,None,847.6756875940882,None,848.1502370394774,None,1,[0.00930037593934685],[0.5173929441698419],848.6498034345859,None,[1 0 1 1 3 0 1 0],space,0,2.739531371404155,0.0026677605128497817,None,848.6664523230247,None,1,851.405756361517,None,None,851.9053404600181,None,,,,,,,,,,,,,,,,,,,,,,,,,,,,,,,,,,,,,,,,,,,,,,21_HXY,21,23,F,2022-12-12_16h43.20.623,dynamic target,2022.1.3,120.13924850522953,
0,6,3,2,mix,0,147,147,147,,,,,,,None,852.9378046379024,None,851.9636599331752,852.962762576306,852.4382029642911,None,2,"[0.04986007262050407, 0.0914521466329461]","[0.08314598309152643, 0.591458560906176]",852.9378046379024,None,[3 3 3 3 3 2 1 2],space,0,3.705041822500789,0.003182505963195581,None,853.029387315004,None,1,856.7345526653553,None,None,857.2340912225136,None,,,,,,,,,,,,,,,,,,,,,,,,,,,,,,,,,,,,,,,,,,,,,,21_HXY,21,23,F,2022-12-12_16h43.20.623,dynamic target,2022.1.3,120.13924850522953,
1,7,4,1,mix,0,148,148,148,,,,,,,None,858.2665643803848,None,857.2840743850466,None,857.7670047202628,None,1,[0.00930518664245028],[0.5176488736833562],858.2665643803848,None,[2 0 3 1 0 1 0 2],space,0,3.6500461617542896,0.002451278778607957,None,858.2832155138167,None,1,861.9384383681318,None,None,862.4380115623699,None,,,,,,,,,,,,,,,,,,,,,,,,,,,,,,,,,,,,,,,,,,,,,,21_HXY,21,23,F,2022-12-12_16h43.20.623,dynamic target,2022.1.3,120.13924850522953,
0,6,2,2,mix,0,149,149,149,,,,,,,None,863.4704722124043,None,862.4962861356107,863.4954285472377,862.9708715009328,None,2,"[0.008075570403889287, 0.20773683261722908]","[0.03320092134526931, 0.7081367625723942]",863.4704722124043,None,[2 1 2 3 0 3 0 1],space,0,2.4468926483059477,0.002526967215089826,None,863.6786163513934,None,1,866.1265061516096,None,None,866.6261110965006,None,,,,,,,,,,,,,,,,,,,,,,,,,,,,,,,,,,,,,,,,,,,,,,21_HXY,21,23,F,2022-12-12_16h43.20.623,dynamic target,2022.1.3,120.13924850522953,
0,5,3,2,mix,0,150,150,150,,,,,,,None,867.6585229980556,None,866.6760310784375,None,867.1589639793638,None,1,[0.008745220566197531],[0.5170529876741057],867.6585229980556,None,[1 3 2 1 3 1 2 2],space,0,2.1941006753841066,0.0028579437239386607,None,867.675188884321,None,1,869.8733171351523,None,None,870.372871407284,None,,,,,,,,,,,,,,,,,,,,,,,,,,,,,,,,,,,,,,,,,,,,,,21_HXY,21,23,F,2022-12-12_16h43.20.623,dynamic target,2022.1.3,120.13924850522953,
1,6,4,1,mix,0,151,151,151,,,,,,,None,871.4053291708951,None,870.4228231398774,871.421983190754,870.9057486643869,None,1,[0.058715297978778835],[0.5669239645576454],871.4053291708951,None,[1 3 3 0 3 3 0 2],space,0,2.829301374797069,0.0025782813936530147,None,871.4719272903603,None,1,874.3028685272766,None,None,874.8024154229915,None,,,,,,,,,,,,,,,,,,,,,,,,,,,,,,,,,,,,,,,,,,,,,,21_HXY,21,23,F,2022-12-12_16h43.20.623,dynamic target,2022.1.3,120.13924850522953,
0,5,3,2,mix,0,152,152,152,,,,,,,None,875.8348597166296,None,874.8607118047657,875.8598535749625,875.3352872279611,None,2,"[0.009541552626615157, 0.750469364469609]","[0.4581872749804461, 1.258366618068976]",875.8348597166296,None,[1 2 0 1 3 0 2 0],space,0,2.7007958941212564,0.0025048379684449174,None,876.5925817002062,None,1,879.2985639082945,None,None,879.7981435168058,None,,,,,,,,,,,,,,,,,,,,,,,,,,,,,,,,,,,,,,,,,,,,,,21_HXY,21,23,F,2022-12-12_16h43.20.623,dynamic target,2022.1.3,120.13924850522953,
1,4,3,2,mix,0,153,153,153,,,,,,,None,880.822273629059,None,879.8314457195302,None,880.3226867082776,None,1,[0.008604747974459315],[0.5179343088602764],880.822273629059,None,[0 2 0 1 0 1 3 0],space,0,5.029512660967157,0.002241852747829398,None,880.8389654931307,None,1,885.8679548024629,None,None,886.367527996701,None,,,,,,,,,,,,,,,,,,,,,,,,,,,,,,,,,,,,,,,,,,,,,,21_HXY,21,23,F,2022-12-12_16h43.20.623,dynamic target,2022.1.3,120.13924850522953,
1,3,2,2,mix,0,154,154,154,,,,,,,None,887.3999886467354,None,886.4091414943832,887.4083063559665,886.900432514467,None,2,"[0.009237195346941007, 0.7918154510880413]","[0.3916135297586152, 1.2918202617947827]",887.3999886467354,None,[3 1 2 0 2 1 3 2],space,0,10.12537494138087,0.0025712256974657066,None,888.1909686386934,None,1,898.3156213859584,None,None,898.8152115780194,None,,,,,,,,,,,,,,,,,,,,,,,,,,,,,,,,,,,,,,,,,,,,,,21_HXY,21,23,F,2022-12-12_16h43.20.623,dynamic target,2022.1.3,120.13924850522953,
1,2,3,2,mix,0,155,155,155,,,,,,,None,899.8476603616473,None,898.8568423942415,899.8559860887217,899.3480962115354,None,2,"[0.017337781417154474, 0.049781818484916585]","[0.04148463492674637, 0.5504017580242362]",899.8476603616473,None,[3 2 1 3 1 1 0 1],space,0,2.449913450436725,0.0024272252594528254,None,899.8976182519436,None,1,902.3455102971529,None,None,902.8451014513576,None,,,,,,,,,,,,,,,,,,,,,,,,,,,,,,,,,,,,,,,,,,,,,,21_HXY,21,23,F,2022-12-12_16h43.20.623,dynamic target,2022.1.3,120.13924850522953,
0,1,1,2,mix,0,156,156,156,,,,,,,None,903.8775531214087,None,902.9034180380913,None,903.3779735770404,None,1,[0.008671135707118083],[0.5175327753349848],903.8775531214087,None,[1 1 3 3 3 1 1 3],space,0,2.6133504234639986,0.0025523035874357447,None,903.8941907848675,None,1,906.5086326500641,None,None,907.0081939778956,None,,,,,,,,,,,,,,,,,,,,,,,,,,,,,,,,,,,,,,,,,,,,,,21_HXY,21,23,F,2022-12-12_16h43.20.623,dynamic target,2022.1.3,120.13924850522953,
0,8,3,2,mix,0,157,157,157,,,,,,,None,908.0572954985255,None,907.0831450209516,None,907.5577541190869,None,1,[0.00869743422663305],[0.5174134698463604],908.0572954985255,None,[2 1 1 0 1 2 3 3],space,0,3.8735948201137944,0.0026735333594842814,None,908.0739706854874,None,1,911.9456698201357,None,None,912.4451974730309,None,,,,,,,,,,,,,,,,,,,,,,,,,,,,,,,,,,,,,,,,,,,,,,21_HXY,21,23,F,2022-12-12_16h43.20.623,dynamic target,2022.1.3,120.13924850522953,
1,1,3,1,mix,0,158,158,158,,,,,,,None,913.4693384895545,None,912.4785102593087,None,912.9697666423126,None,1,[0.008640347194159403],[0.5177207135493518],913.4693384895545,None,[1 2 2 1 2 0 1 1],space,0,2.7966222546056088,0.0023727039297227748,None,913.4859739080166,None,1,916.2835891452523,None,None,916.7831623394904,None,,,,,,,,,,,,,,,,,,,,,,,,,,,,,,,,,,,,,,,,,,,,,,21_HXY,21,23,F,2022-12-12_16h43.20.623,dynamic target,2022.1.3,120.13924850522953,
0,7,3,0,mix,0,159,159,159,,,,,,,None,917.8156120852618,None,916.8248210578022,917.8239490373126,917.316067498683,None,3,"[0.06648362467967672, 0.10911513171959086, 0.9501780923055776]","[0.09974259520095075, 0.5922690043698822, 1.4575060791285068]",917.8156120852618,None,[0 3 0 1 1 0 1 2],space,0,2.6465022756165126,0.002990719189256197,None,918.7731197679568,None,1,921.4208610135975,None,None,921.9204396599653,None,,,,,,,,,,,,,,,,,,,,,,,,,,,,,,,,,,,,,,,,,,,,,,21_HXY,21,23,F,2022-12-12_16h43.20.623,dynamic target,2022.1.3,120.13924850522953,
1,6,4,2,mix,0,160,160,160,,,,,,,None,922.9445883736153,None,921.9537527669563,None,922.4450251856433,None,1,[0.008653175736981211],[0.5176379694203206],922.9445883736153,None,[0 3 1 0 0 3 0 3],space,0,5.11304029333769,0.0024653901855344884,None,922.961218660661,None,1,928.0735248934761,None,None,928.5730724306177,None,,,,,,,,,,,,,,,,,,,,,,,,,,,,,,,,,,,,,,,,,,,,,,21_HXY,21,23,F,2022-12-12_16h43.20.623,dynamic target,2022.1.3,120.13924850522953,
1,1,3,0,mix,0,161,161,161,,,,,,,None,929.6055321185122,None,928.6230597624271,929.6221851762275,929.1059519327173,None,2,"[0.009202878984069685, 0.4166275930510892]","[0.2836657958214346, 0.9168581861849816]",929.6055321185122,None,[1 0 0 0 3 0 0 0],space,0,3.5725787350420433,0.002682192629436031,None,930.0218444500169,None,1,933.5937721893788,None,None,934.0933681542865,None,,,,,,,,,,,,,,,,,,,,,,,,,,,,,,,,,,,,,,,,,,,,,,21_HXY,21,23,F,2022-12-12_16h43.20.623,dynamic target,2022.1.3,120.13924850522953,
0,8,2,2,mix,0,162,162,162,,,,,,,None,935.1257951293846,None,934.1433048133331,935.1424597327932,934.6262296964196,None,2,"[0.00819808303276659, 0.8245369054857292]","[0.5076766025922552, 1.3330557021945424]",935.1257951293846,None,[3 0 1 0 0 2 0 1],space,0,2.9156740582002385,0.0023986817395780236,None,935.9584153024043,None,1,938.8726093200676,None,None,939.3721805900223,None,,,,,,,,,,,,,,,,,,,,,,,,,,,,,,,,,,,,,,,,,,,,,,21_HXY,21,23,F,2022-12-12_16h43.20.623,dynamic target,2022.1.3,120.13924850522953,
0,7,1,2,mix,0,163,163,163,,,,,,,None,940.3962811966194,None,939.405512939833,None,939.8967131979443,None,1,[0.008705131356691709],[0.5175654881313676],940.3962811966194,None,[1 1 2 2 0 2 0 1],space,0,1.9809873986741877,0.002502913681382779,None,940.4129435550349,None,1,942.394574037713,None,None,942.8941760961843,None,,,,,,,,,,,,,,,,,,,,,,,,,,,,,,,,,,,,,,,,,,,,,,21_HXY,21,23,F,2022-12-12_16h43.20.623,dynamic target,2022.1.3,120.13924850522953,
1,6,2,2,mix,0,164,164,164,,,,,,,None,943.926601146999,None,942.9441730494036,None,943.4270511082905,None,1,[0.009236553916707635],[0.5174163562696776],943.926601146999,None,[3 2 3 3 2 2 2 3],space,0,9.842350893632101,0.0025862992406473495,None,943.9432660711209,None,1,953.7848553228541,None,None,954.2844018978558,None,,,,,,,,,,,,,,,,,,,,,,,,,,,,,,,,,,,,,,,,,,,,,,21_HXY,21,23,F,2022-12-12_16h43.20.623,dynamic target,2022.1.3,120.13924850522953,
1,5,2,2,mix,0,165,165,165,,,,,,,None,955.31686703788,None,954.326037524781,None,954.8172958320683,None,1,[0.008825398985209176],[0.5176674750800885],955.31686703788,None,[1 2 0 2 2 0 2 3],space,0,2.7397616438211116,0.0024057374394033104,None,955.3335252270153,None,1,958.072817399101,None,None,958.5724463975184,None,,,,,,,,,,,,,,,,,,,,,,,,,,,,,,,,,,,,,,,,,,,,,,21_HXY,21,23,F,2022-12-12_16h43.20.623,dynamic target,2022.1.3,120.13924850522953,
0,4,2,2,mix,0,166,166,166,,,,,,,None,959.5965393069891,None,958.6057216602967,959.6048554126537,959.0969421233676,None,2,"[0.009181391167658148, 0.8003223813902878]","[0.3499476916003914, 1.3083123212418286]",959.5965393069891,None,[0 2 3 0 0 2 3 2],space,0,4.27638201440277,0.00259110994375078,None,960.4041762052257,None,1,964.6838362872113,None,None,965.1834216685693,None,,,,,,,,,,,,,,,,,,,,,,,,,,,,,,,,,,,,,,,,,,,,,,21_HXY,21,23,F,2022-12-12_16h43.20.623,dynamic target,2022.1.3,120.13924850522953,
0,5,1,1,mix,0,167,167,167,,,,,,,None,966.2075241994498,None,965.2167164948805,None,965.7079562007748,None,1,[0.008749069129407872],[0.5176068601940642],966.2075241994498,None,[2 0 2 1 2 0 2 1],space,0,1.8804157586127985,0.0024150381395884324,None,966.2241993864118,None,1,968.1059435941606,None,None,968.6054965834355,None,,,,,,,,,,,,,,,,,,,,,,,,,,,,,,,,,,,,,,,,,,,,,,21_HXY,21,23,F,2022-12-12_16h43.20.623,dynamic target,2022.1.3,120.13924850522953,
0,4,4,2,mix,0,168,168,168,,,,,,,None,969.6379514606269,None,968.6637778916665,969.6629138890166,969.1383545977187,None,2,"[0.008656382873596158, 0.3082654970421572]","[0.1167320815657149, 0.8166646675490483]",969.6379514606269,None,[3 1 0 2 3 1 2 0],space,0,2.2469607037455717,0.003185071673215134,None,969.9543355037094,None,1,972.2023988741676,None,None,972.7019794448188,None,,,,,,,,,,,,,,,,,,,,,,,,,,,,,,,,,,,,,,,,,,,,,,21_HXY,21,23,F,2022-12-12_16h43.20.623,dynamic target,2022.1.3,120.13924850522953,
1,5,1,1,mix,0,169,169,169,,,,,,,None,973.7261044256556,None,972.7352986453698,None,973.2265524626637,None,1,[0.008677549976709997],[0.5174445790726168],973.7261044256556,None,[3 0 0 1 3 2 3 1],space,0,1.9614043007968576,0.0027466560750326607,None,973.7427520312413,None,1,975.707744209034,None,None,976.2073238175453,None,,,,,,,,,,,,,,,,,,,,,,,,,,,,,,,,,,,,,,,,,,,,,,21_HXY,21,23,F,2022-12-12_16h43.20.623,dynamic target,2022.1.3,120.13924850522953,
0,4,4,2,mix,0,170,170,170,,,,,,,None,977.2397738840264,None,976.248961368754,None,976.7401972260814,None,1,[0.008694868520251475],[0.5177935155552404],977.2397738840264,None,[2 3 3 0 3 1 2 1],space,0,1.9989957923899055,0.0022899598043295555,None,977.2564115474888,None,1,979.2547165757023,None,None,979.754285279947,None,,,,,,,,,,,,,,,,,,,,,,,,,,,,,,,,,,,,,,,,,,,,,,21_HXY,21,23,F,2022-12-12_16h43.20.623,dynamic target,2022.1.3,120.13924850522953,
0,3,2,2,mix,0,171,171,171,,,,,,,None,980.7867632485213,None,979.8042453510934,980.8033919319969,980.28716414062,None,2,"[0.00868396425357787, 0.7251480574705056]","[0.4499215213654679, 1.2335308715810243]",980.7867632485213,None,[2 2 0 0 3 1 3 0],space,0,1.7041309956584882,0.002466993755660951,None,981.5194451909956,None,1,983.2263160966831,None,None,983.7258825559347,None,,,,,,,,,,,,,,,,,,,,,,,,,,,,,,,,,,,,,,,,,,,,,,21_HXY,21,23,F,2022-12-12_16h43.20.623,dynamic target,2022.1.3,120.13924850522953,
0,4,4,1,mix,0,172,172,172,,,,,,,None,984.758344168109,None,983.7841824655552,984.7833168593388,984.2587604544642,None,2,"[0.016637022032227833, 0.05892696900627925]","[0.049779894201492425, 0.5667629662930267]",984.758344168109,None,[0 0 1 3 0 0 3 1],space,0,2.479218662738276,0.0028085538142477162,None,984.8249589646839,None,1,987.3061561631876,None,None,987.8057242260056,None,,,,,,,,,,,,,,,,,,,,,,,,,,,,,,,,,,,,,,,,,,,,,,21_HXY,21,23,F,2022-12-12_16h43.20.623,dynamic target,2022.1.3,120.13924850522953,
0,5,2,1,mix,0,173,173,173,,,,,,,None,988.829864601099,None,987.8390456715497,None,988.3302924331438,None,1,[0.008641950757009909],[0.5173265564371832],988.829864601099,None,[1 1 0 3 1 0 3 1],space,0,2.793033789264882,0.002728696112171747,None,988.8464932845745,None,1,991.6441142946569,None,None,992.1436855646116,None,,,,,,,,,,,,,,,,,,,,,,,,,,,,,,,,,,,,,,,,,,,,,,21_HXY,21,23,F,2022-12-12_16h43.20.623,dynamic target,2022.1.3,120.13924850522953,
1,7,4,0,mix,0,174,174,174,,,,,,,None,993.1761145281362,None,992.1852961758741,None,992.6765673117079,None,1,[0.008671135707118083],[0.5088946731411852],993.1761145281362,None,[0 2 2 2 2 0 0 2],space,0,6.00665860429217,0.0028595472940651234,None,993.1844696967273,None,1,999.1959752999137,None,None,999.6955459284418,None,,,,,,,,,,,,,,,,,,,,,,,,,,,,,,,,,,,,,,,,,,,,,,21_HXY,21,23,F,2022-12-12_16h43.20.623,dynamic target,2022.1.3,120.13924850522953,
1,6,2,2,mix,0,175,175,175,,,,,,,None,1000.7279998434897,None,999.7455143381449,None,1000.2284158091315,None,1,[0.008744579135964159],[0.5174003205866029],1000.7279998434897,None,[1 2 1 0 0 1 2 1],space,0,4.190350891065464,0.002567056413681712,None,1000.7446378276654,None,1,1004.9327344753729,None,None,1005.4323134424576,None,,,,,,,,,,,,,,,,,,,,,,,,,,,,,,,,,,,,,,,,,,,,,,21_HXY,21,23,F,2022-12-12_16h43.20.623,dynamic target,2022.1.3,120.13924850522953,
0,5,1,2,mix,0,176,176,176,,,,,,,None,1006.4564313675946,None,1005.4656255873051,None,1005.9568662553393,None,1,[0.008566903761675349],[0.5168984036827169],1006.4564313675946,None,[2 1 2 0 0 2 1 3],space,0,2.9260526735270105,0.0030619176213804167,None,1006.4730985367096,None,1,1009.4039109750156,None,None,1009.9034806414002,None,,,,,,,,,,,,,,,,,,,,,,,,,,,,,,,,,,,,,,,,,,,,,,21_HXY,21,23,F,2022-12-12_16h43.20.623,dynamic target,2022.1.3,120.13924850522953,
0,4,2,2,mix,0,177,177,177,,,,,,,None,1010.935938084298,None,1009.9534545032366,None,1010.4363835555996,None,1,[0.009444697097933386],[0.5175866552344814],1010.935938084298,None,[2 3 1 1 2 3 2 2],space,0,3.006001141253364,0.002410227429209044,None,1010.9526219305299,None,1,1013.9583742510513,None,None,1014.4579182603466,None,,,,,,,,,,,,,,,,,,,,,,,,,,,,,,,,,,,,,,,,,,,,,,21_HXY,21,23,F,2022-12-12_16h43.20.623,dynamic target,2022.1.3,120.13924850522953,
0,3,4,2,mix,0,178,178,178,,,,,,,None,1015.4820493347434,None,1014.5078770486398,None,1014.9824781289317,None,1,[0.009481579170824261],[0.5174458619294455],1015.4820493347434,None,[2 3 3 1 3 1 1 3],space,0,2.491597889984405,0.0026536491168371867,None,1015.4986879603457,None,1,1017.9882625208229,None,None,1018.4878046058311,None,,,,,,,,,,,,,,,,,,,,,,,,,,,,,,,,,,,,,,,,,,,,,,21_HXY,21,23,F,2022-12-12_16h43.20.623,dynamic target,2022.1.3,120.13924850522953,
1,2,2,2,mix,0,179,179,179,,,,,,,None,1019.5202614073023,None,1018.5461317761183,None,1019.0206879564939,None,1,[0.008971323706646217],[0.5173900577465247],1019.5202614073023,None,[3 3 2 2 1 2 2 1],space,0,4.068780202240305,0.0026853997696889564,None,1019.5369234450045,None,1,1023.6084063544913,None,space,1024.1163215680572,None,5.110651617866097,,,,,,,,,,,,,,,,,,,,,,,,,,,,,,,,,,,,,,,,,,,,,21_HXY,21,23,F,2022-12-12_16h43.20.623,dynamic target,2022.1.3,120.13924850522953,
1,3,4,1,mix,0,180,180,180,,,,,,,None,1030.269395640731,None,1029.2952400317372,1030.2943654455376,1029.7614746543186,None,3,"[0.057402937607548665, 0.09989749990927521, 0.7079337508184835]","[0.07434527906298172, 0.3654465007894032, 1.2150920801032044]",1030.269395640731,None,[0 0 1 2 1 3 0 1],space,0,5.364391941133363,0.0029304250165296253,None,1030.9771058541155,None,1,1036.3392021798245,None,None,1036.838779864056,None,,,,,,,,,,,,,,,,,,,,,,,,,,,,,,,,,,,,,,,,,,,,,,21_HXY,21,23,F,2022-12-12_16h43.20.623,dynamic target,2022.1.3,120.13924850522953,
1,2,2,2,mix,0,181,181,181,,,,,,,None,1037.8712501355003,None,1036.8803949653084,1037.8795498847685,1037.3716516690256,None,2,"[0.00868107783026062, 0.7753134495142149]","[0.23331791769669508, 1.282923985087109]",1037.8712501355003,None,[2 0 0 2 0 1 1 1],space,0,4.295769476935675,0.0029926434690423775,None,1038.6538918925507,None,1,1042.9502114465286,None,None,1043.4497852821933,None,,,,,,,,,,,,,,,,,,,,,,,,,,,,,,,,,,,,,,,,,,,,,,21_HXY,21,23,F,2022-12-12_16h43.20.623,dynamic target,2022.1.3,120.13924850522953,
1,1,1,2,mix,0,182,182,182,,,,,,,None,1044.4739125721699,None,1043.4831134627275,None,1043.9743336050851,None,1,[0.00865798644372262],[0.5089036531207967],1044.4739125721699,None,[2 0 0 0 0 0 0 3],space,0,2.883483384943247,0.0028726965610985644,None,1044.482234065821,None,1,1047.3630943866774,None,None,1047.8626637323487,None,,,,,,,,,,,,,,,,,,,,,,,,,,,,,,,,,,,,,,,,,,,,,,21_HXY,21,23,F,2022-12-12_16h43.20.623,dynamic target,2022.1.3,120.13924850522953,
1,8,3,2,mix,0,183,183,183,,,,,,,None,1048.886804107442,None,1047.8959678593565,1048.8951317587998,1048.3872203937972,None,2,"[0.008649327173770871, 0.7254370204937004]","[0.24171291892344016, 1.232961925514246]",1048.886804107442,None,[2 3 0 1 2 1 2 2],space,0,1.3771092005954415,0.002936197863164125,None,1049.6194982370362,None,1,1050.9933144026727,None,None,1051.4929167818573,None,,,,,,,,,,,,,,,,,,,,,,,,,,,,,,,,,,,,,,,,,,,,,,21_HXY,21,23,F,2022-12-12_16h43.20.623,dynamic target,2022.1.3,120.13924850522953,
0,5,4,0,mix,0,184,184,184,,,,,,,None,1052.5170183505943,None,1051.526194610342,1052.5253427948155,1052.0174304676693,None,3,"[0.008627839360997314, 0.6257168752490543, 1.4585172893566778]","[0.34165114947245456, 1.1085432992331334, 1.9663006896007573]",1052.5170183505943,None,[3 1 2 2 0 1 2 0],space,0,2.0220544643925678,0.0027367139591660816,None,1053.982455999685,None,1,1056.0056913849257,None,None,1056.5052815769868,None,,,,,,,,,,,,,,,,,,,,,,,,,,,,,,,,,,,,,,,,,,,,,,21_HXY,21,23,F,2022-12-12_16h43.20.623,dynamic target,2022.1.3,120.13924850522953,
0,1,4,0,mix,0,185,185,185,,,,,,,None,1057.5377281156216,None,1056.5635686580645,None,1057.0381537026697,None,1,[0.009253872456611134],[0.5175215503550135],1057.5377281156216,None,[3 0 1 0 3 3 2 0],space,0,2.6092760769024608,0.002517345801607007,None,1057.5543686655037,None,1,1060.168826887093,None,None,1060.6683737828116,None,,,,,,,,,,,,,,,,,,,,,,,,,,,,,,,,,,,,,,,,,,,,,,21_HXY,21,23,F,2022-12-12_16h43.20.623,dynamic target,2022.1.3,120.13924850522953,
1,8,2,2,mix,0,186,186,186,,,,,,,None,1061.7008328292795,None,1060.7267259687615,None,1061.2012430220711,None,1,[0.00869647208310198],[0.517285825801082],1061.7008328292795,None,[1 0 0 1 2 0 2 2],space,0,3.0386780164481024,0.0027861038652190473,None,1061.7174640784651,None,1,1064.7565282872674,None,None,1065.2561162343318,None,,,,,,,,,,,,,,,,,,,,,,,,,,,,,,,,,,,,,,,,,,,,,,21_HXY,21,23,F,2022-12-12_16h43.20.623,dynamic target,2022.1.3,120.13924850522953,
0,7,1,2,mix,0,187,187,187,,,,,,,None,1066.2802283866222,None,1065.2894380005928,None,1065.7806821964768,None,1,[0.008603465117630549],[0.5179529102497327],1066.2802283866222,None,[3 2 3 1 1 0 0 1],space,0,2.2827754415666277,0.0022906012272869702,None,1066.2969013285874,None,1,1068.578266965913,None,None,1069.0778491401343,None,,,,,,,,,,,,,,,,,,,,,,,,,,,,,,,,,,,,,,,,,,,,,,21_HXY,21,23,F,2022-12-12_16h43.20.623,dynamic target,2022.1.3,120.13924850522953,
0,6,3,2,mix,0,188,188,188,,,,,,,None,1070.1103020930423,None,1069.1361455219048,None,1069.6107231901005,None,1,[0.008644837183965137],[0.5170783240537276],1070.1103020930423,None,[3 2 1 3 3 1 0 2],space,0,2.981352370839886,0.0030490890821965877,None,1070.1269625271707,None,0,1073.1160730149568,None,None,1073.615637549925,None,,,,,,,,,,,,,,,,,,,,,,,,,,,,,,,,,,,,,,,,,,,,,,21_HXY,21,23,F,2022-12-12_16h43.20.623,dynamic target,2022.1.3,120.13924850522953,
0,5,3,2,mix,0,189,189,189,,,,,,,None,1074.648115197786,None,1073.6655960175049,1074.664745805545,1074.1485151277448,None,2,"[0.03319578992886818, 0.7916836377662548]","[0.4418837951743626, 1.2995424057262426]",1074.648115197786,None,[3 1 0 1 0 1 2 2],space,0,1.8520239388635673,0.0027662196116580162,None,1075.4473904490187,None,1,1077.304141119148,None,None,1077.8037216898028,None,,,,,,,,,,,,,,,,,,,,,,,,,,,,,,,,,,,,,,,,,,,,,,21_HXY,21,23,F,2022-12-12_16h43.20.623,dynamic target,2022.1.3,120.13924850522953,
1,4,3,2,mix,0,190,190,190,,,,,,,None,1078.836169832004,None,1077.8620145437235,1078.8611255254073,1078.3365825905057,None,1,[0.10013194160637795],[0.6001685029659711],1078.836169832004,None,[0 0 2 1 0 2 0 2],space,0,2.155262249012594,0.0024387709454458673,None,1078.9360846504496,None,1,1081.092557967393,None,None,1081.5921404623277,None,,,,,,,,,,,,,,,,,,,,,,,,,,,,,,,,,,,,,,,,,,,,,,21_HXY,21,23,F,2022-12-12_16h43.20.623,dynamic target,2022.1.3,120.13924850522953,
0,3,4,2,mix,0,191,191,191,,,,,,,None,1082.624593735949,None,1081.642101816331,None,1082.1250080980208,None,1,[0.009538024776702514],[0.5173906991767581],1082.624593735949,None,[2 2 2 0 1 1 0 0],space,0,1.986050505500316,0.0026286334432370495,None,1082.641272130044,None,1,1084.6312052484136,None,None,1085.1308079483115,None,,,,,,,,,,,,,,,,,,,,,,,,,,,,,,,,,,,,,,,,,,,,,,21_HXY,21,23,F,2022-12-12_16h43.20.623,dynamic target,2022.1.3,120.13924850522953,
1,2,1,2,mix,0,192,192,192,,,,,,,None,1086.1549056684853,None,1085.1640989260559,None,1085.6553123334306,None,1,[0.008631367207271978],[0.5176527222502045],1086.1549056684853,None,[0 1 2 3 1 0 3 0],space,0,2.5035059888396063,0.002520552934583975,None,1086.1715770068804,None,1,1088.6777552351705,None,None,1089.1773204115652,None,,,,,,,,,,,,,,,,,,,,,,,,,,,,,,,,,,,,,,,,,,,,,,21_HXY,21,23,F,2022-12-12_16h43.20.623,dynamic target,2022.1.3,120.13924850522953,
0,1,1,2,mix,0,193,193,193,,,,,,,None,1090.2014226217325,None,1089.2190047869735,None,1089.7018668101737,None,1,[0.009817366390052484],[0.5175815238144423],1090.2014226217325,None,[2 0 3 3 0 1 0 3],space,0,3.0799163432748173,0.0024281873993459158,None,1090.2180920358442,None,1,1093.2987989914182,None,None,1093.7983619228198,None,,,,,,,,,,,,,,,,,,,,,,,,,,,,,,,,,,,,,,,,,,,,,,21_HXY,21,23,F,2022-12-12_16h43.20.623,dynamic target,2022.1.3,120.13924850522953,
0,8,2,2,mix,0,194,194,194,,,,,,,None,1094.8224756786767,None,1093.8316862547872,None,1094.3229310921015,None,1,[0.008655741447000764],[0.5175096839484468],1094.8224756786767,None,[0 1 2 2 2 1 1 2],space,0,1.4997260574346,0.0026020142140623648,None,1094.8391300192488,None,1,1096.337845560971,None,None,1096.8374440915886,None,,,,,,,,,,,,,,,,,,,,,,,,,,,,,,,,,,,,,,,,,,,,,,21_HXY,21,23,F,2022-12-12_16h43.20.623,dynamic target,2022.1.3,120.13924850522953,
1,7,3,2,mix,0,195,195,195,,,,,,,None,1097.8698877437964,None,1096.887390692762,1097.886525407259,1097.3702854287585,None,2,"[0.009561116159602534, 0.8168615857466648]","[0.2583188317294116, 1.3244685934696463]",1097.8698877437964,None,[2 2 1 2 2 1 1 1],space,0,1.7731729533443286,0.003244724419346312,None,1098.6941895661585,None,1,1100.4676592327378,None,None,1100.9672491040856,None,,,,,,,,,,,,,,,,,,,,,,,,,,,,,,,,,,,,,,,,,,,,,,21_HXY,21,23,F,2022-12-12_16h43.20.623,dynamic target,2022.1.3,120.13924850522953,
0,6,4,2,mix,0,196,196,196,,,,,,,None,1101.9913606790924,None,1101.0005272532871,None,1101.4917682420346,None,1,[0.008686529963597422],[0.5091817118809558],1101.9913606790924,None,[2 2 3 2 2 0 1 2],space,0,3.521844076218258,0.002506762248231098,None,1101.9996722306205,None,1,1105.5216674160656,None,None,1106.0212393274505,None,,,,,,,,,,,,,,,,,,,,,,,,,,,,,,,,,,,,,,,,,,,,,,21_HXY,21,23,F,2022-12-12_16h43.20.623,dynamic target,2022.1.3,120.13924850522953,
0,5,3,2,mix,0,197,197,197,,,,,,,None,1107.0536977324882,None,1106.0711965121736,1107.0703498280636,1106.554096058877,None,1,[0.05048867142977542],[0.558284579510655],1107.0536977324882,None,[2 0 0 2 3 0 3 0],space,0,2.77841533911851,0.0028377387607179116,None,1107.1119832741388,None,1,1109.8929274936927,None,None,1110.3925042157807,None,,,,,,,,,,,,,,,,,,,,,,,,,,,,,,,,,,,,,,,,,,,,,,21_HXY,21,23,F,2022-12-12_16h43.20.623,dynamic target,2022.1.3,120.13924850522953,
0,4,1,2,mix,0,198,198,198,,,,,,,None,1111.4249555651186,None,1110.4424427991107,1111.4416083021206,1110.92540039499,None,1,[0.18310666359684546],[0.6914939676935319],1111.4249555651186,None,[2 3 2 1 0 1 1 0],space,0,2.033949093271076,0.0031866752469795756,None,1111.6164383078358,None,1,1113.6480507343367,None,None,1114.1476297014215,None,,,,,,,,,,,,,,,,,,,,,,,,,,,,,,,,,,,,,,,,,,,,,,21_HXY,21,23,F,2022-12-12_16h43.20.623,dynamic target,2022.1.3,120.13924850522953,
0,3,3,2,mix,0,199,199,199,,,,,,,None,1115.1800813714726,None,1114.1892393505404,None,1114.680496695688,None,1,[0.009566568292939337],[0.5176107087572746],1115.1800813714726,None,[2 0 0 0 2 1 1 2],space,0,3.7803951046516886,0.002428187392069958,None,1115.1967132620885,None,1,1118.9768204189422,None,None,1119.476385595337,None,,,,,,,,,,,,,,,,,,,,,,,,,,,,,,,,,,,,,,,,,,,,,,21_HXY,21,23,F,2022-12-12_16h43.20.623,dynamic target,2022.1.3,120.13924850522953,
