tar_letter,tar_pos,tar_ori,tar_pos_type,block,trials.thisRepN,trials.thisTrialN,trials.thisN,trials.thisIndex,instructions_key.keys,instructions_key.rt,instructions_key.started,instructions_key.stopped,instruction_text.started,instruction_text.stopped,fix_key.keys,fix_key.started,fix_key.stopped,fixcross.started,fixcross.stopped,roi.started,roi.stopped,roi.numLooks,roi.timesOn,roi.timesOff,RedFixCross.started,RedFixCross.stopped,distori,search_resp.keys,search_resp.corr,search_resp.rt,search_resp.started,search_resp.stopped,fixcross_shape.started,fixcross_shape.stopped,correct,feedback_text.started,feedback_text.stopped,break_key.keys,break_key.started,break_key.stopped,break_key.rt,fix_key.rt,text_q1.started,text_q1.stopped,key_resp1.keys,key_resp1.rt,key_resp1.started,key_resp1.stopped,text_q2.started,text_q2.stopped,key_resp_2.keys,key_resp_2.rt,key_resp_2.started,key_resp_2.stopped,image.started,image.stopped,text_q1_2.started,text_q1_2.stopped,slider.response,slider.rt,slider.started,slider.stopped,mouse.x,mouse.y,mouse.leftButton,mouse.midButton,mouse.rightButton,mouse.time,mouse.started,mouse.stopped,key_resp_3.keys,key_resp_3.rt,key_resp_3.started,key_resp_3.stopped,text_q4.started,text_q4.stopped,key_resp1_3.keys,key_resp1_3.rt,key_resp1_3.started,key_resp1_3.stopped,finish_text.started,finish_text.stopped,key_resp.keys,key_resp.rt,key_resp.started,key_resp.stopped,participant,group,age,gender,date,expName,psychopyVersion,frameRate,
,,,,,,,,,space,7.818675209271532,64.75504716589421,None,,,,,,,,,,,,,,,,,,,,,,,,,,,,,,,,,,,,,,,,,,,,,,,,,,,,,,,,,,,,,,,,,,,,,,,,,,,22_SU,22,22,F,2022-12-13_16h27.04.500,dynamic target,2022.1.3,120.0991056243167,
0,2,2,0,mix,0,0,0,0,,,,,64.75504716589421,None,None,202.3961425088928,None,201.4226697758877,None,201.89656601252682,None,1,[0.008911375971365487],[0.5169438335706218],202.3961425088928,None,[2 2 2 2 3 3 1 3],space,0,5.825343507305661,0.007574765788376681,None,202.42112296935557,None,1,208.2494912664606,None,None,208.74906109196309,None,,,,,,,,,,,,,,,,,,,,,,,,,,,,,,,,,,,,,,,,,,,,,,,22_SU,22,22,F,2022-12-13_16h27.04.500,dynamic target,2022.1.3,120.0991056243167,
0,1,1,2,mix,0,1,1,1,,,,,,,None,209.78151381782845,None,208.80734641699382,None,209.28193956646464,None,1,[0.007592276806462905],[0.5165358845952142],209.78151381782845,None,[3 3 0 1 3 0 0 2],space,0,3.099190802897283,0.0021780370152555406,None,209.79818873220574,None,1,212.89553042507214,None,None,213.3951024955768,None,,,,,,,,,,,,,,,,,,,,,,,,,,,,,,,,,,,,,,,,,,,,,,,22_SU,22,22,F,2022-12-13_16h27.04.500,dynamic target,2022.1.3,120.0991056243167,
1,8,3,2,mix,0,2,2,2,,,,,,,None,214.41923396034144,None,213.42841537800996,214.42756259787893,213.91965906754922,None,3,"[0.008588737080572173, 0.21671455470277579, 0.46648035286307277]","[0.11803516122563451, 0.3590316599838843, 0.9668910279142438]",214.41923396034144,None,[2 0 3 2 0 2 1 3],space,0,2.715679959374029,0.002512221630240674,None,214.8855042451396,None,1,217.59986138714885,None,None,218.09943538194238,None,,,,,,,,,,,,,,,,,,,,,,,,,,,,,,,,,,,,,,,,,,,,,,,22_SU,22,22,F,2022-12-13_16h27.04.500,dynamic target,2022.1.3,120.0991056243167,
0,7,2,2,mix,0,3,3,3,,,,,,,None,219.13188746637752,None,218.15778228417548,None,218.63232251573754,None,1,[0.008624657115433365],[0.5173537068349106],219.13188746637752,None,[1 0 3 0 0 3 2 1],space,0,3.780743651692319,0.002724213984038215,None,219.14855115574392,None,1,222.92865671574873,None,None,223.42823038982715,None,,,,,,,,,,,,,,,,,,,,,,,,,,,,,,,,,,,,,,,,,,,,,,,22_SU,22,22,F,2022-12-13_16h27.04.500,dynamic target,2022.1.3,120.0991056243167,
0,6,3,2,mix,0,4,4,4,,,,,,,None,224.46068664355334,None,223.47819830232947,224.47733782504838,223.96111078861577,None,1,[0.15022945526288822],[0.65794568826459],224.46068664355334,None,[2 0 2 2 0 2 3 0],space,0,1.8463301088122535,0.002588872421256383,None,224.61888553599601,None,0,226.47564348979904,None,None,226.97521203244287,None,,,,,,,,,,,,,,,,,,,,,,,,,,,,,,,,,,,,,,,,,,,,,,,22_SU,22,22,F,2022-12-13_16h27.04.500,dynamic target,2022.1.3,120.0991056243167,
0,5,3,2,mix,0,5,5,5,,,,,,,None,228.00766604116689,None,227.01684810026381,228.0159924337022,227.50809627980743,None,3,"[0.03308716349420138, 0.0913972476919298, 0.21630724715578253]","[0.04143183676205808, 0.10010785632221086, 0.7167852722723183]",228.00766604116689,None,[2 2 0 0 0 2 1 0],space,0,3.07301119053227,0.0023464121823053574,None,228.22414775706784,None,1,231.29654458879122,None,None,231.79612756359347,None,,,,,,,,,,,,,,,,,,,,,,,,,,,,,,,,,,,,,,,,,,,,,,,22_SU,22,22,F,2022-12-13_16h27.04.500,dynamic target,2022.1.3,120.0991056243167,
0,4,3,2,mix,0,6,6,6,,,,,,,None,232.8285626501547,None,231.8377463128254,None,232.32898647450384,None,1,[0.008657049291286967],[0.5176089956603391],232.8285626501547,None,[2 3 0 0 3 3 3 1],space,0,2.7877275328955875,0.002256291376397712,None,232.84521960451457,None,1,235.63450850647496,None,None,236.1340828219818,None,,,,,,,,,,,,,,,,,,,,,,,,,,,,,,,,,,,,,,,,,,,,,,,22_SU,22,22,F,2022-12-13_16h27.04.500,dynamic target,2022.1.3,120.0991056243167,
0,3,3,2,mix,0,7,7,7,,,,,,,None,237.15822102175298,None,236.16739025226525,None,236.65863554537827,None,1,[0.008256476750830188],[0.5169778293202398],237.15822102175298,None,[0 1 0 0 2 3 1 0],space,0,3.03414539131154,0.002557121677455143,None,237.17486482681306,None,1,240.21394293909907,None,None,240.71351885817967,None,,,,,,,,,,,,,,,,,,,,,,,,,,,,,,,,,,,,,,,,,,,,,,,22_SU,22,22,F,2022-12-13_16h27.04.500,dynamic target,2022.1.3,120.0991056243167,
0,2,2,2,mix,0,8,8,8,,,,,,,None,241.73764647436838,None,240.74682211917388,None,241.23807190229127,None,1,[0.008295603933220264],[0.5173039960718597],241.73764647436838,None,[2 3 0 3 3 1 1 3],space,0,2.2135422361861856,0.0024051029540714808,None,241.75430086301094,None,1,243.96907990508225,None,None,244.4686545413042,None,,,,,,,,,,,,,,,,,,,,,,,,,,,,,,,,,,,,,,,,,,,,,,,22_SU,22,22,F,2022-12-13_16h27.04.500,dynamic target,2022.1.3,120.0991056243167,
1,1,2,2,mix,0,9,9,9,,,,,,,None,245.50111720932182,None,244.5269956706743,None,245.0015346193777,None,1,[0.00858905779568886],[0.5173161832262849],245.50111720932182,None,[2 3 2 0 0 2 2 3],space,0,2.737638005415647,0.002101065510942135,None,245.51777031510574,None,1,248.25709637185355,None,None,248.7566713287888,None,,,,,,,,,,,,,,,,,,,,,,,,,,,,,,,,,,,,,,,,,,,,,,,22_SU,22,22,F,2022-12-13_16h27.04.500,dynamic target,2022.1.3,120.0991056243167,
0,8,1,2,mix,0,10,10,10,,,,,,,None,249.78912597894123,None,248.79831894233575,None,249.28955204829253,None,1,[0.008723437213120633],[0.51773599864282],249.78912597894123,None,[3 1 2 2 1 2 0 0],space,0,3.521671998596503,0.0021725848673668224,None,249.80577940544026,None,1,253.32778539831452,None,None,253.82738472956044,None,,,,,,,,,,,,,,,,,,,,,,,,,,,,,,,,,,,,,,,,,,,,,,,22_SU,22,22,F,2022-12-13_16h27.04.500,dynamic target,2022.1.3,120.0991056243167,
1,7,1,2,mix,0,11,11,11,,,,,,,None,254.85148123643194,None,253.8690012337902,None,254.3519085886419,None,1,[0.008625619258964434],[0.5169819986094808],254.85148123643194,None,[2 3 0 3 1 0 0 3],space,0,3.755663128273227,0.00299746282689739,None,254.8681353043612,None,1,258.62327387391633,None,None,259.12286262157977,None,,,,,,,,,,,,,,,,,,,,,,,,,,,,,,,,,,,,,,,,,,,,,,,22_SU,22,22,F,2022-12-13_16h27.04.500,dynamic target,2022.1.3,120.0991056243167,
1,6,1,2,mix,0,12,12,12,,,,,,,None,260.14697484346834,None,259.1561575439937,None,259.64740091281783,None,1,[0.009049924679857213],[0.5176789114429994],260.14697484346834,None,[3 0 2 1 3 3 2 3],space,0,2.4594479133793357,0.0024349294108105823,None,260.1636401364067,None,0,262.62819780522295,None,None,263.1277724414431,None,,,,,,,,,,,,,,,,,,,,,,,,,,,,,,,,,,,,,,,,,,,,,,,22_SU,22,22,F,2022-12-13_16h27.04.500,dynamic target,2022.1.3,120.0991056243167,
1,5,1,2,mix,0,13,13,13,,,,,,,None,264.16022452588004,None,263.1861170986758,None,263.6606496330878,None,1,[0.007867129223086522],[0.5164480087951233],264.16022452588004,None,[2 2 3 0 1 2 0 0],space,0,6.398296618510358,0.0027139511166751618,None,264.17687987666613,None,1,270.57976348580996,None,None,271.07933715988656,None,,,,,,,,,,,,,,,,,,,,,,,,,,,,,,,,,,,,,,,,,,,,,,,22_SU,22,22,F,2022-12-13_16h27.04.500,dynamic target,2022.1.3,120.0991056243167,
0,4,3,2,mix,0,14,14,14,,,,,,,None,272.1034650967904,None,271.13768277926283,None,271.6038889211395,None,1,[0.008627864261143259],[0.5175102155608329],272.1034650967904,None,[0 3 1 1 2 0 2 1],space,0,3.6070391703142377,0.002373993638684624,None,272.120117881861,None,1,275.72538106507454,None,None,276.2249614741595,None,,,,,,,,,,,,,,,,,,,,,,,,,,,,,,,,,,,,,,,,,,,,,,,22_SU,22,22,F,2022-12-13_16h27.04.500,dynamic target,2022.1.3,120.0991056243167,
0,3,2,2,mix,0,15,15,15,,,,,,,None,277.2574129171662,None,276.266588882685,None,276.7578361000851,None,1,[0.009057942545041442],[0.5173578761241515],277.2574129171662,None,[1 2 1 2 3 2 1 0],space,0,4.4526596680843795,0.0024128001041390235,None,277.2740724372434,None,1,281.7286100197016,None,None,282.22818176949295,None,,,,,,,,,,,,,,,,,,,,,,,,,,,,,,,,,,,,,,,,,,,,,,,22_SU,22,22,F,2022-12-13_16h27.04.500,dynamic target,2022.1.3,120.0991056243167,
0,2,4,2,mix,0,16,16,16,,,,,,,None,283.2606453996541,None,282.2698181580272,None,282.7610721104338,None,1,[0.008663142867590068],[0.5175769241996022],283.2606453996541,None,[0 3 0 2 3 1 2 0],space,0,2.7692845189103537,0.002396443660472869,None,283.2772888840009,None,1,286.0499397537624,None,None,286.5495057306889,None,,,,,,,,,,,,,,,,,,,,,,,,,,,,,,,,,,,,,,,,,,,,,,,22_SU,22,22,F,2022-12-13_16h27.04.500,dynamic target,2022.1.3,120.0991056243167,
1,1,4,2,mix,0,17,17,17,,,,,,,None,287.57362853615996,None,286.5828134816875,None,287.0740725655287,None,1,[0.009373846429298283],[0.5175810934888432],287.57362853615996,None,[1 1 2 3 2 0 3 2],space,0,4.199788069701754,0.0023977265191206243,None,287.5902848490896,None,1,291.79503803194166,None,None,292.29461042316143,None,,,,,,,,,,,,,,,,,,,,,,,,,,,,,,,,,,,,,,,,,,,,,,,22_SU,22,22,F,2022-12-13_16h27.04.500,dynamic target,2022.1.3,120.0991056243167,
1,8,3,2,mix,0,18,18,18,,,,,,,None,293.31873900149367,None,292.3279268334536,None,292.819176616571,None,1,[0.008688158608492813],[0.5176125235211657],293.31873900149367,None,[2 3 2 0 2 3 3 2],space,0,2.9185341910597344,0.002393236512943986,None,293.33539114513405,None,1,296.2579045726525,None,None,296.7574782467309,None,,,,,,,,,,,,,,,,,,,,,,,,,,,,,,,,,,,,,,,,,,,,,,,22_SU,22,22,F,2022-12-13_16h27.04.500,dynamic target,2022.1.3,120.0991056243167,
1,7,1,2,mix,0,19,19,19,,,,,,,None,297.78160425934766,None,296.79077958343805,None,297.2820370637055,None,1,[0.008642937847980647],[0.5176304835385963],297.78160425934766,None,[2 0 2 2 3 0 2 1],space,0,3.07937865826716,0.002175150584662333,None,297.79826025156217,None,1,300.87897128866643,None,None,301.3785430384578,None,,,,,,,,,,,,,,,,,,,,,,,,,,,,,,,,,,,,,,,,,,,,,,,22_SU,22,22,F,2022-12-13_16h27.04.500,dynamic target,2022.1.3,120.0991056243167,
0,8,2,1,mix,0,20,20,20,,,,,,,None,302.40267514465086,None,301.41185624160426,302.4109970471818,301.90308357469803,None,4,"[0.008603810667409562, 1.0913581205113587, 1.741343993031478, 2.249158043987336]","[0.42490451524463424, 1.4913293203389912, 1.9909510374636739, 2.7565186044939765]",302.40267514465086,None,[2 0 1 0 0 1 0 1],space,0,2.58667892442827,0.003196305880919681,None,304.6590861493951,None,1,307.24854932767084,None,None,307.74813647176234,None,,,,,,,,,,,,,,,,,,,,,,,,,,,,,,,,,,,,,,,,,,,,,,,22_SU,22,22,F,2022-12-13_16h27.04.500,dynamic target,2022.1.3,120.0991056243167,
0,7,1,2,mix,0,21,21,21,,,,,,,None,308.7805773311866,None,307.806465413978,None,308.2810017969641,None,1,[0.009067563983990112],[0.5177706358208525],308.7805773311866,None,[2 2 1 2 0 1 0 0],space,0,4.112063966364076,0.002280344973769388,None,308.797241020553,None,1,312.91039394336985,None,None,313.4099682588767,None,,,,,,,,,,,,,,,,,,,,,,,,,,,,,,,,,,,,,,,,,,,,,,,22_SU,22,22,F,2022-12-13_16h27.04.500,dynamic target,2022.1.3,120.0991056243167,
0,6,4,2,mix,0,22,22,22,,,,,,,None,314.4341157593717,None,313.44328370702533,314.44243798261596,313.93452354798865,None,4,"[0.009429650770471198, 0.38323919825234043, 1.1746483444549085, 1.9655103515451628]","[0.37486149138021574, 0.7334156073193299, 1.4329082688873314, 2.4739481924043503]",314.4341157593717,None,[3 2 1 1 2 0 0 3],space,0,2.245160206082801,0.0025571216756361537,None,316.4074307007904,None,1,318.65551210585363,None,None,319.15507936564063,None,,,,,,,,,,,,,,,,,,,,,,,,,,,,,,,,,,,,,,,,,,,,,,,22_SU,22,22,F,2022-12-13_16h27.04.500,dynamic target,2022.1.3,120.0991056243167,
1,5,1,2,mix,0,23,23,23,,,,,,,None,320.179208328831,None,319.1883874373525,None,319.6796327304655,None,1,[0.008649352141219424],[0.5090151271451759],320.179208328831,None,[0 0 3 0 2 1 1 1],space,0,3.4561018979220535,0.0016350671903637704,None,320.1875580693886,None,1,323.64292501981254,None,None,324.14250093889314,None,,,,,,,,,,,,,,,,,,,,,,,,,,,,,,,,,,,,,,,,,,,,,,,22_SU,22,22,F,2022-12-13_16h27.04.500,dynamic target,2022.1.3,120.0991056243167,
0,4,1,2,mix,0,24,24,24,,,,,,,None,325.1666275929383,None,324.1758019548852,None,324.66705719015044,None,1,[0.009188794103465625],[0.5173498582589673],325.1666275929383,None,[2 2 1 2 0 3 1 3],space,0,3.549250247348027,0.002597531716673984,None,325.1832829437244,None,1,328.7302600963376,None,None,329.22983793970525,None,,,,,,,,,,,,,,,,,,,,,,,,,,,,,,,,,,,,,,,,,,,,,,,22_SU,22,22,F,2022-12-13_16h27.04.500,dynamic target,2022.1.3,120.0991056243167,
1,1,2,0,mix,0,25,25,25,,,,,,,None,330.2539472751614,None,329.26314633213224,None,329.7543929081021,None,1,[0.008578794928325806],[0.517835099455624],330.2539472751614,None,[0 1 1 2 1 3 1 2],space,0,3.181294062094821,0.0020305082962295273,None,330.2706186616779,None,1,333.451243522768,None,None,333.95082489399647,None,,,,,,,,,,,,,,,,,,,,,,,,,,,,,,,,,,,,,,,,,,,,,,,22_SU,22,22,F,2022-12-13_16h27.04.500,dynamic target,2022.1.3,120.0991056243167,
0,2,4,1,mix,0,26,26,26,,,,,,,None,334.9749441716067,None,333.9841377764278,334.98327537485966,334.4753708823864,None,3,"[0.008653521430460387, 0.383290191874039, 0.8171731124421058]","[0.25865728982716973, 0.7088065343668859, 1.3248624054176616]",334.9749441716067,None,[2 0 1 1 3 3 1 1],space,0,3.33331310484391,0.0023172271521616494,None,335.79925382540387,None,1,339.12973931996385,None,None,339.62931235261203,None,,,,,,,,,,,,,,,,,,,,,,,,,,,,,,,,,,,,,,,,,,,,,,,22_SU,22,22,F,2022-12-13_16h27.04.500,dynamic target,2022.1.3,120.0991056243167,
1,3,3,1,mix,0,27,27,27,,,,,,,None,340.65344349666157,None,339.67096413544823,None,340.1538730938737,None,1,[0.008653521430460387],[0.5174941798322834],340.65344349666157,None,[1 1 2 0 0 3 1 2],space,0,3.1503823057555564,0.002524088071368169,None,340.6700972438757,None,1,343.82574677593766,None,None,344.32532526073373,None,,,,,,,,,,,,,,,,,,,,,,,,,,,,,,,,,,,,,,,,,,,,,,,22_SU,22,22,F,2022-12-13_16h27.04.500,dynamic target,2022.1.3,120.0991056243167,
0,2,4,2,mix,0,28,28,28,,,,,,,None,345.3577713157356,None,344.3669501035438,None,344.85819667951364,None,1,[0.00865672857617028],[0.5087662526129861],345.3577713157356,None,[0 3 2 0 3 0 0 3],space,0,3.013463468680129,0.0023682207756792195,None,345.36610245484735,None,1,348.38020427595984,None,None,348.8797785914667,None,,,,,,,,,,,,,,,,,,,,,,,,,,,,,,,,,,,,,,,,,,,,,,,22_SU,22,22,F,2022-12-13_16h27.04.500,dynamic target,2022.1.3,120.0991056243167,
1,1,2,2,mix,0,29,29,29,,,,,,,None,349.9122274687579,None,348.92140664142244,None,349.41265193453546,None,1,[0.009126575470872922],[0.51757820705825],349.9122274687579,None,[3 3 1 0 1 3 3 0],space,0,4.786088039843889,0.002201769895691541,None,349.92888346097243,None,1,354.7164809141141,None,None,355.2160465703273,None,,,,,,,,,,,,,,,,,,,,,,,,,,,,,,,,,,,,,,,,,,,,,,,22_SU,22,22,F,2022-12-13_16h27.04.500,dynamic target,2022.1.3,120.0991056243167,
0,8,1,2,mix,0,30,30,30,,,,,,,None,356.2401786765204,None,355.2493572077565,None,355.7405944830043,None,1,[0.009461401516091428],[0.5176144478082279],356.2401786765204,None,[2 0 3 3 3 2 2 2],space,0,3.0178059444097016,0.0023996508061827626,None,356.25682729229993,None,1,359.2792516573736,None,None,359.7788330286021,None,,,,,,,,,,,,,,,,,,,,,,,,,,,,,,,,,,,,,,,,,,,,,,,22_SU,22,22,F,2022-12-13_16h27.04.500,dynamic target,2022.1.3,120.0991056243167,
1,7,2,2,mix,0,31,31,31,,,,,,,None,360.8029545512127,None,359.81213500673766,None,360.3033838277097,None,1,[0.008958200303823105],[0.5175496634583396],360.8029545512127,None,[2 2 3 3 0 3 1 1],space,0,3.5916483972087008,0.002388105080171954,None,360.81961727843554,None,1,364.41655022053965,None,None,364.9161194046137,None,,,,,,,,,,,,,,,,,,,,,,,,,,,,,,,,,,,,,,,,,,,,,,,22_SU,22,22,F,2022-12-13_16h27.04.500,dynamic target,2022.1.3,120.0991056243167,
0,8,2,1,mix,0,32,32,32,,,,,,,None,365.94025343509384,None,364.9494387013383,None,365.4406891258841,None,1,[0.008604452095823945],[0.5176651207148097],365.94025343509384,None,[3 0 0 3 0 2 0 0],space,0,2.7256724642738845,0.0022354449283739086,None,365.956901409445,None,1,368.68791710938785,None,None,369.18748501060145,None,,,,,,,,,,,,,,,,,,,,,,,,,,,,,,,,,,,,,,,,,,,,,,,22_SU,22,22,F,2022-12-13_16h27.04.500,dynamic target,2022.1.3,120.0991056243167,
1,7,1,2,mix,0,33,33,33,,,,,,,None,370.2116101252177,None,369.2208001380368,None,369.71204382757605,None,1,[0.008662180724058999],[0.5088845963018684],370.2116101252177,None,[1 3 2 0 2 0 3 2],space,0,3.0714310296789336,0.002722610412092763,None,370.2199393400406,None,1,373.29232173960736,None,None,373.7918957344009,None,,,,,,,,,,,,,,,,,,,,,,,,,,,,,,,,,,,,,,,,,,,,,,,22_SU,22,22,F,2022-12-13_16h27.04.500,dynamic target,2022.1.3,120.0991056243167,
1,6,3,2,mix,0,34,34,34,,,,,,,None,374.8160259163069,None,373.82522882185185,None,374.31645647566074,None,1,[0.008692969326148159],[0.5177379229298822],374.8160259163069,None,[1 2 0 1 1 3 3 3],space,0,2.5528313466093095,0.0021899034563830355,None,374.8326787013757,None,1,377.38883951665775,None,None,377.88840998359046,None,,,,,,,,,,,,,,,,,,,,,,,,,,,,,,,,,,,,,,,,,,,,,,,22_SU,22,22,F,2022-12-13_16h27.04.500,dynamic target,2022.1.3,120.0991056243167,
1,5,3,2,mix,0,35,35,35,,,,,,,None,378.9125363169205,None,377.92175173033684,378.92086335088425,378.4129620655567,None,2,"[0.008685913604495, 0.6337657314525131]","[0.49153040839519235, 1.1416759967887629]",378.9125363169205,None,[1 0 2 3 1 1 3 1],space,0,3.417274905170416,0.0026222267388220644,None,379.55365827923197,None,1,382.97574756168797,None,None,383.4753244429121,None,,,,,,,,,,,,,,,,,,,,,,,,,,,,,,,,,,,,,,,,,,,,,,,22_SU,22,22,F,2022-12-13_16h27.04.500,dynamic target,2022.1.3,120.0991056243167,
1,4,2,2,mix,0,36,36,36,,,,,,,None,384.4994514818154,None,383.508619365326,None,383.99987363844775,None,1,[0.008636202841444174],[0.5089436077887513],384.4994514818154,None,[2 1 2 2 3 0 1 3],space,0,3.1826776248944952,0.00275371972747962,None,384.5077720373429,None,1,387.68839818129163,None,None,388.1879564610699,None,,,,,,,,,,,,,,,,,,,,,,,,,,,,,,,,,,,,,,,,,,,,,,,22_SU,22,22,F,2022-12-13_16h27.04.500,dynamic target,2022.1.3,120.0991056243167,
1,3,2,2,mix,0,37,37,37,,,,,,,None,389.2121068479955,None,388.22128569994675,None,388.71253035162954,None,1,[0.008699704332684632],[0.5179066188120487],389.2121068479955,None,[1 1 0 2 2 3 3 1],space,0,3.6277932537323068,0.001846418113927939,None,389.2287670095011,None,1,392.85899493816214,None,None,393.35857181938627,None,,,,,,,,,,,,,,,,,,,,,,,,,,,,,,,,,,,,,,,,,,,,,,,22_SU,22,22,F,2022-12-13_16h27.04.500,dynamic target,2022.1.3,120.0991056243167,
0,2,1,2,mix,0,38,38,38,,,,,,,None,394.382716754164,None,393.3918648175131,None,393.8831290327871,None,1,[0.008758395106269745],[0.5177687115319713],394.382716754164,None,[3 2 1 3 1 0 3 2],space,0,3.6898608302253706,0.0021427584088087315,None,394.39935414493266,None,1,398.08787612206106,None,None,398.5874513997114,None,,,,,,,,,,,,,,,,,,,,,,,,,,,,,,,,,,,,,,,,,,,,,,,22_SU,22,22,F,2022-12-13_16h27.04.500,dynamic target,2022.1.3,120.0991056243167,
1,1,4,2,mix,0,39,39,39,,,,,,,None,399.61157869518684,None,398.6207639614295,399.6199050877203,399.1036780512877,None,3,"[0.00771414835799078, 0.2907431823296065, 0.4827601468496141]","[0.17451653075295326, 0.3499843010213226, 0.9909821467808797]",399.61157869518684,None,[1 2 3 0 1 2 1 1],space,0,5.258343500570845,0.002580854556072154,None,400.09450593434303,None,0,405.3650290230689,None,None,405.8645882649889,None,,,,,,,,,,,,,,,,,,,,,,,,,,,,,,,,,,,,,,,,,,,,,,,22_SU,22,22,F,2022-12-13_16h27.04.500,dynamic target,2022.1.3,120.0991056243167,
1,8,3,2,mix,0,40,40,40,,,,,,,None,406.8970432358565,None,405.9229402986566,406.9220227341757,406.3974664187772,None,2,"[0.06648798587048077, 0.2495813872628787]","[0.11669072560653149, 0.7496104119345546]",406.8970432358565,None,[0 2 1 1 2 2 3 2],space,0,2.894708623884071,0.0028646869814110687,None,407.1468484819143,None,1,410.05269340934683,None,None,410.55226419699466,None,,,,,,,,,,,,,,,,,,,,,,,,,,,,,,,,,,,,,,,,,,,,,,,22_SU,22,22,F,2022-12-13_16h27.04.500,dynamic target,2022.1.3,120.0991056243167,
0,7,2,2,mix,0,41,41,41,,,,,,,None,411.576393096042,None,410.60228502740756,None,411.07681724110444,None,1,[0.008629788550024386],[0.5171106051657262],411.576393096042,None,[1 2 3 3 3 2 1 2],space,0,3.663440681904831,0.0028213905079610413,None,411.59304363610863,None,1,415.2565918877808,None,None,415.75616652400277,None,,,,,,,,,,,,,,,,,,,,,,,,,,,,,,,,,,,,,,,,,,,,,,,22_SU,22,22,F,2022-12-13_16h27.04.500,dynamic target,2022.1.3,120.0991056243167,
1,1,4,0,mix,0,42,42,42,,,,,,,None,416.78030671220404,None,415.7894614464167,None,416.28071956811436,None,1,[0.008606376382886083],[0.5089410420714557],416.78030671220404,None,[0 3 1 2 0 3 1 1],space,0,3.2041876326329657,0.0027527575821295613,None,416.78862598487467,None,1,419.9942441350122,None,None,420.493797604071,None,,,,,,,,,,,,,,,,,,,,,,,,,,,,,,,,,,,,,,,,,,,,,,,22_SU,22,22,F,2022-12-13_16h27.04.500,dynamic target,2022.1.3,120.0991056243167,
0,8,1,2,mix,0,43,43,43,,,,,,,None,421.5179396524163,None,420.52711593865024,None,421.01835834533085,None,1,[0.008635240697913105],[0.5176372185451328],421.5179396524163,None,[0 3 0 3 1 3 2 2],space,0,3.785710879468752,0.0023278107328223996,None,421.53458153318934,None,1,425.3230231071666,None,None,425.8226044783951,None,,,,,,,,,,,,,,,,,,,,,,,,,,,,,,,,,,,,,,,,,,,,,,,22_SU,22,22,F,2022-12-13_16h27.04.500,dynamic target,2022.1.3,120.0991056243167,
1,1,1,1,mix,0,44,44,44,,,,,,,None,426.8550520728277,None,425.88088018198687,None,426.35549706433994,None,1,[0.009346906403152389],[0.5173944375892461],426.8550520728277,None,[3 1 1 0 1 1 3 3],space,0,7.104002484091325,0.002414724393020151,None,426.87170165075077,None,1,433.97399966709963,None,None,434.473563399024,None,,,,,,,,,,,,,,,,,,,,,,,,,,,,,,,,,,,,,,,,,,,,,,,22_SU,22,22,F,2022-12-13_16h27.04.500,dynamic target,2022.1.3,120.0991056243167,
1,8,3,2,mix,0,45,45,45,,,,,,,None,435.5060167663196,None,434.5235274629522,435.52268847354935,435.00644123209713,None,1,[0.04086417191319924],[0.5413316134472552],435.5060167663196,None,[0 3 0 3 0 1 2 3],space,0,2.235952169101438,0.0024657180128997425,None,435.54765257756844,None,1,437.78740855223987,None,None,438.2869828677467,None,,,,,,,,,,,,,,,,,,,,,,,,,,,,,,,,,,,,,,,,,,,,,,,22_SU,22,22,F,2022-12-13_16h27.04.500,dynamic target,2022.1.3,120.0991056243167,
1,1,3,1,mix,0,46,46,46,,,,,,,None,439.31110855964835,None,438.32028741159957,None,438.8115355911432,None,1,[0.009824450447922572],[0.5174964248344622],439.31110855964835,None,[3 3 3 3 1 0 3 2],space,0,1.5910441708965664,0.0023865015064075124,None,439.32776391043626,None,0,440.92640145065707,None,None,441.4259805768834,None,,,,,,,,,,,,,,,,,,,,,,,,,,,,,,,,,,,,,,,,,,,,,,,22_SU,22,22,F,2022-12-13_16h27.04.500,dynamic target,2022.1.3,120.0991056243167,
0,8,3,2,mix,0,47,47,47,,,,,,,None,442.45843105774657,None,441.46761504113056,442.46679593603403,441.9588561649525,None,2,"[0.1171198417468986, 0.32452533436844533]","[0.19164269057728234, 0.8249603837284667]",442.45843105774657,None,[2 2 3 1 2 1 1 0],space,0,1.8327500903578766,0.0026693717863963684,None,442.7831462551603,None,0,444.6149272763614,None,None,445.11450223329666,None,,,,,,,,,,,,,,,,,,,,,,,,,,,,,,,,,,,,,,,,,,,,,,,22_SU,22,22,F,2022-12-13_16h27.04.500,dynamic target,2022.1.3,120.0991056243167,
0,7,2,2,mix,0,48,48,48,,,,,,,None,446.14695560059226,None,445.1644637315094,446.16361576209783,445.6473791042263,None,2,"[0.008909451684303349, 0.5916289639935712]","[0.2666895870715962, 1.0918058380975708]",446.14695560059226,None,[1 2 2 0 1 2 2 2],space,0,3.637230922369781,0.002644356049131602,None,446.73812690484556,None,1,450.3850265407382,None,None,450.884589310519,None,,,,,,,,,,,,,,,,,,,,,,,,,,,,,,,,,,,,,,,,,,,,,,,22_SU,22,22,F,2022-12-13_16h27.04.500,dynamic target,2022.1.3,120.0991056243167,
0,6,1,2,mix,0,49,49,49,,,,,,,None,451.9170429985279,None,450.9262439797876,None,451.41746778502056,None,1,[0.008903358106181258],[0.5176490849862603],451.9170429985279,None,[2 0 1 3 3 2 2 1],space,0,5.032249647290882,0.002110045519657433,None,451.9337236857682,None,1,456.9710798813485,None,None,457.4706641390094,None,,,,,,,,,,,,,,,,,,,,,,,,,,,,,,,,,,,,,,,,,,,,,,,22_SU,22,22,F,2022-12-13_16h27.04.500,dynamic target,2022.1.3,120.0991056243167,
1,5,1,2,mix,0,50,50,50,,,,,,,None,458.5031017912879,None,457.52898185621416,None,458.0035265777806,None,1,[0.008317412524775136],[0.5170541593943199],458.5031017912879,None,[3 3 2 2 0 1 2 3],space,0,3.7109625682733167,0.002409913673545816,None,458.51976099064996,None,1,462.2332685596739,None,None,462.7328390266066,None,,,,,,,,,,,,,,,,,,,,,,,,,,,,,,,,,,,,,,,,,,,,,,,22_SU,22,22,F,2022-12-13_16h27.04.500,dynamic target,2022.1.3,120.0991056243167,
1,4,2,2,mix,0,51,51,51,,,,,,,None,463.7652875831827,None,462.7744686801343,None,463.26571204896027,None,1,[0.009167947653622832],[0.5176288799648319],463.7652875831827,None,[3 3 2 0 0 1 0 2],space,0,2.9440576213455643,0.0023727107800368685,None,463.7819339539601,None,1,466.7294400290957,None,None,467.2290037610219,None,,,,,,,,,,,,,,,,,,,,,,,,,,,,,,,,,,,,,,,,,,,,,,,22_SU,22,22,F,2022-12-13_16h27.04.500,dynamic target,2022.1.3,120.0991056243167,
0,8,1,0,mix,0,52,52,52,,,,,,,None,468.25314741294096,None,467.26231119130534,None,467.75355840870543,None,1,[0.009150629064606619],[0.5176975128906633],468.25314741294096,None,[2 1 3 3 0 2 3 3],space,0,3.5276158023425523,0.0022287099236564245,None,468.2697960287205,None,1,471.80011334054143,None,None,472.2996882974785,None,,,,,,,,,,,,,,,,,,,,,,,,,,,,,,,,,,,,,,,,,,,,,,,22_SU,22,22,F,2022-12-13_16h27.04.500,dynamic target,2022.1.3,120.0991056243167,
1,7,3,2,mix,0,53,53,53,,,,,,,None,473.32381783795427,None,472.33299861419255,None,472.8242413415883,None,1,[0.009120161177634145],[0.5176243899604742],473.32381783795427,None,[2 3 2 1 2 3 1 3],space,0,4.23257825147266,0.0020051718420290854,None,473.34047575445766,None,1,477.5785271310124,None,None,478.0781011258059,None,,,,,,,,,,,,,,,,,,,,,,,,,,,,,,,,,,,,,,,,,,,,,,,22_SU,22,22,F,2022-12-13_16h27.04.500,dynamic target,2022.1.3,120.0991056243167,
1,6,3,2,mix,0,54,54,54,,,,,,,None,479.11055321024105,None,478.13640409013897,None,478.61097927959236,None,1,[0.00866378429782344],[0.5176237485302408],479.11055321024105,None,[0 0 2 2 1 0 2 2],space,0,1.1978211270379688,0.002120629100318183,None,479.1272300489072,None,1,480.32619016387616,None,None,480.8257622343808,None,,,,,,,,,,,,,,,,,,,,,,,,,,,,,,,,,,,,,,,,,,,,,,,22_SU,22,22,F,2022-12-13_16h27.04.500,dynamic target,2022.1.3,120.0991056243167,
1,2,1,0,mix,0,55,55,55,,,,,,,None,481.85822297811137,None,480.87572084616113,481.87485170958644,481.35863942602373,None,2,"[0.008132680914059165, 0.30773335916273936]","[0.16652464354956464, 0.8080590448425937]",481.85822297811137,None,[3 3 3 1 1 0 3 1],space,0,3.5029599050576508,0.002352826475544134,None,482.1662876354585,None,1,485.6716395604035,None,None,486.17120938590597,None,,,,,,,,,,,,,,,,,,,,,,,,,,,,,,,,,,,,,,,,,,,,,,,22_SU,22,22,F,2022-12-13_16h27.04.500,dynamic target,2022.1.3,120.0991056243167,
0,1,1,2,mix,0,56,56,56,,,,,,,None,487.19533956781197,None,486.20451457118725,None,486.6957614678722,None,1,[0.008170845952918171],[0.5171333759044501],487.19533956781197,None,[3 1 3 0 0 0 0 0],space,0,2.649225007107816,0.002430118694974226,None,487.2119901078804,None,1,489.85973450603706,None,None,490.3593142736936,None,,,,,,,,,,,,,,,,,,,,,,,,,,,,,,,,,,,,,,,,,,,,,,,22_SU,22,22,F,2022-12-13_16h27.04.500,dynamic target,2022.1.3,120.0991056243167,
0,8,4,2,mix,0,57,57,57,,,,,,,None,491.3917651394131,None,490.40094745508213,None,490.88386346922744,None,1,[0.008636844271677546],[0.516428765919045],491.3917651394131,None,[2 1 0 2 1 1 0 0],space,0,4.589521738675103,0.003322346719869529,None,491.40009531638134,None,1,495.98785068939287,None,None,496.48742340132594,None,,,,,,,,,,,,,,,,,,,,,,,,,,,,,,,,,,,,,,,,,,,,,,,22_SU,22,22,F,2022-12-13_16h27.04.500,dynamic target,2022.1.3,120.0991056243167,
1,7,4,2,mix,0,58,58,58,,,,,,,None,497.5115526210884,None,496.52073724590264,None,497.0119780490113,None,1,[0.009166023366560694],[0.517155184496005],497.5115526210884,None,[1 0 0 1 2 2 3 2],space,0,3.1479535340640723,0.002426911547445343,None,497.528212782594,None,1,500.6755240556813,None,None,501.17509869190144,None,,,,,,,,,,,,,,,,,,,,,,,,,,,,,,,,,,,,,,,,,,,,,,,22_SU,22,22,F,2022-12-13_16h27.04.500,dynamic target,2022.1.3,120.0991056243167,
1,8,3,1,mix,0,59,59,59,,,,,,,None,502.19923977810504,None,501.208417988626,None,501.69964917029574,None,1,[0.00859162351298437],[0.517435809773815],502.19923977810504,None,[3 2 1 1 0 0 0 3],space,0,2.4924263546236034,0.002584061703601037,None,502.215879734591,None,1,504.7054258817334,None,space,505.2133290913498,None,3.100532031368857,,,,,,,,,,,,,,,,,,,,,,,,,,,,,,,,,,,,,,,,,,,,,,22_SU,22,22,F,2022-12-13_16h27.04.500,dynamic target,2022.1.3,120.0991056243167,
1,6,1,0,mix,0,60,60,60,,,,,,,None,509.3514701717795,None,508.36065351373327,None,508.8518959204139,None,1,[0.00865416285887477],[0.51765870642339],509.3514701717795,None,[3 3 1 1 3 1 2 0],space,0,3.387381738411932,0.0022155606238811743,None,509.3681229568483,None,1,512.7569031413041,None,None,513.2564803432433,None,,,,,,,,,,,,,,,,,,,,,,,,,,,,,,,,,,,,,,,,,,,,,,,22_SU,22,22,F,2022-12-13_16h27.04.500,dynamic target,2022.1.3,120.0991056243167,
1,5,1,2,mix,0,61,61,61,,,,,,,None,514.2889382005415,None,513.3148233969005,None,513.7893591384582,None,1,[0.007844999914595974],[0.5163636608540401],514.2889382005415,None,[1 1 1 3 2 3 3 1],space,0,2.642411104643543,0.002597531716673984,None,514.3055897027534,None,1,516.9450045012309,None,None,517.4445781753075,None,,,,,,,,,,,,,,,,,,,,,,,,,,,,,,,,,,,,,,,,,,,,,,,22_SU,22,22,F,2022-12-13_16h27.04.500,dynamic target,2022.1.3,120.0991056243167,
0,6,2,1,mix,0,62,62,62,,,,,,,None,518.4687064329264,None,517.4862113566978,None,517.9691360301385,None,1,[0.008656407862872584],[0.5172536438803945],518.4687064329264,None,[1 1 0 3 3 2 1 1],space,0,2.2870115375444584,0.0028284462314331904,None,518.4853614629974,None,1,520.7750786793113,None,None,521.2746507498159,None,,,,,,,,,,,,,,,,,,,,,,,,,,,,,,,,,,,,,,,,,,,,,,,22_SU,22,22,F,2022-12-13_16h27.04.500,dynamic target,2022.1.3,120.0991056243167,
1,5,1,2,mix,0,63,63,63,,,,,,,None,522.2987799695784,None,521.3163445462651,522.3154314717885,521.7992037939257,None,2,"[0.00870259076509683, 0.6085771272119018]","[0.3416130084424367, 1.116316772380742]",522.2987799695784,None,[0 0 2 0 3 1 2 3],space,0,2.112984417277403,0.0030417214438784868,None,522.9149253200012,None,1,525.0298040080997,None,None,525.5293603635891,None,,,,,,,,,,,,,,,,,,,,,,,,,,,,,,,,,,,,,,,,,,,,,,,22_SU,22,22,F,2022-12-13_16h27.04.500,dynamic target,2022.1.3,120.0991056243167,
0,4,2,2,mix,0,64,64,64,,,,,,,None,526.553488300493,None,525.56267805674,None,526.0539146905576,None,1,[0.0094357443467743],[0.5175547948911117],526.553488300493,None,[0 3 1 1 1 1 0 1],space,0,2.5696246046754823,0.002515749494705233,None,526.570145254851,None,1,529.1429540444842,None,None,529.6425248321302,None,,,,,,,,,,,,,,,,,,,,,,,,,,,,,,,,,,,,,,,,,,,,,,,22_SU,22,22,F,2022-12-13_16h27.04.500,dynamic target,2022.1.3,120.0991056243167,
1,5,3,1,mix,0,65,65,65,,,,,,,None,530.6749839722888,None,529.6925424553974,530.6916370780727,530.1754058723491,None,3,"[0.04976881287802826, 0.2579671120001876, 1.5907672038538294]","[0.11674396423222788, 0.7162679596167436, 2.0984212182229385]",530.6749839722888,None,[0 2 3 3 3 0 1 0],space,0,3.1217245316493063,0.0030558328835468274,None,532.273618626079,None,1,535.395969002293,None,None,535.8955349792195,None,,,,,,,,,,,,,,,,,,,,,,,,,,,,,,,,,,,,,,,,,,,,,,,22_SU,22,22,F,2022-12-13_16h27.04.500,dynamic target,2022.1.3,120.0991056243167,
1,4,3,2,mix,0,66,66,66,,,,,,,None,536.9196607352642,None,535.9288385609289,None,536.4200918719052,None,1,[0.008639409988973057],[0.5089766413948382],536.9196607352642,None,[3 1 1 0 3 3 2 0],space,0,2.163264128517767,0.002618698879814474,None,536.9279883465151,None,1,539.092821861961,None,None,539.5923871974592,None,,,,,,,,,,,,,,,,,,,,,,,,,,,,,,,,,,,,,,,,,,,,,,,22_SU,22,22,F,2022-12-13_16h27.04.500,dynamic target,2022.1.3,120.0991056243167,
1,3,3,2,mix,0,67,67,67,,,,,,,None,540.6248392818943,None,539.6340178131304,540.6331807480165,540.1252675962478,None,1,[0.03322090148321877],[0.5332284382766375],540.6248392818943,None,[2 1 1 3 3 0 3 3],space,0,1.8884777805687918,0.0027469847209431464,None,540.6581586427619,None,1,542.5482115831219,None,None,543.0477785221938,None,,,,,,,,,,,,,,,,,,,,,,,,,,,,,,,,,,,,,,,,,,,,,,,22_SU,22,22,F,2022-12-13_16h27.04.500,dynamic target,2022.1.3,120.0991056243167,
1,2,2,2,mix,0,68,68,68,,,,,,,None,544.0802322102027,None,543.0977977490329,544.0968875609888,543.58065603455,None,2,"[0.008717664351934218, 0.2333981283736648]","[0.11712497318148962, 0.7338793606377294]",544.0802322102027,None,[0 1 3 1 3 3 3 3],space,0,8.584512817997165,0.0025195980688295094,None,544.3133631833116,None,1,552.897728602964,None,None,553.3972974663229,None,,,,,,,,,,,,,,,,,,,,,,,,,,,,,,,,,,,,,,,,,,,,,,,22_SU,22,22,F,2022-12-13_16h27.04.500,dynamic target,2022.1.3,120.0991056243167,
0,5,3,0,mix,0,69,69,69,,,,,,,None,554.4297428157533,None,553.4473176553074,None,553.9301765822547,None,1,[0.009215413414494833],[0.5175102155608329],554.4297428157533,None,[1 3 2 1 2 1 1 0],space,0,1.8911907053989125,0.0019368596349522704,None,554.4464061844046,None,0,556.344789365874,None,None,556.8443633606657,None,,,,,,,,,,,,,,,,,,,,,,,,,,,,,,,,,,,,,,,,,,,,,,,22_SU,22,22,F,2022-12-13_16h27.04.500,dynamic target,2022.1.3,120.0991056243167,
1,4,1,2,mix,0,70,70,70,,,,,,,None,557.8684925804282,None,556.8776727152381,None,557.3689164047773,None,1,[0.00936262141840416],[0.5175560777497594],557.8684925804282,None,[0 0 1 3 1 0 3 1],space,0,2.516919008174227,0.0025420480906177545,None,557.8851440826402,None,1,560.3996674830996,None,None,560.8992398743194,None,,,,,,,,,,,,,,,,,,,,,,,,,,,,,,,,,,,,,,,,,,,,,,,22_SU,22,22,F,2022-12-13_16h27.04.500,dynamic target,2022.1.3,120.0991056243167,
0,3,1,2,mix,0,71,71,71,,,,,,,None,561.9317022216237,None,560.9492635911647,561.9483543652641,561.4321218766818,None,1,[0.14187099126684188],[0.6421097632901365],561.9317022216237,None,[0 3 3 2 3 3 0 0],space,0,2.4082573726627743,0.002666485355803161,None,562.0732438389932,None,1,564.4795311922226,None,None,564.9791045455859,None,,,,,,,,,,,,,,,,,,,,,,,,,,,,,,,,,,,,,,,,,,,,,,,22_SU,22,22,F,2022-12-13_16h27.04.500,dynamic target,2022.1.3,120.0991056243167,
0,8,4,0,mix,0,72,72,72,,,,,,,None,566.0115559885926,None,565.037439902093,None,565.5119647393549,None,1,[0.00859611351552303],[0.5169348535619065],566.0115559885926,None,[2 0 2 1 2 0 2 1],space,0,3.2861683788523806,0.0030779621920373756,None,566.0282280165375,None,1,569.3170744927029,None,None,569.8166504117817,None,,,,,,,,,,,,,,,,,,,,,,,,,,,,,,,,,,,,,,,,,,,,,,,22_SU,22,22,F,2022-12-13_16h27.04.500,dynamic target,2022.1.3,120.0991056243167,
0,7,4,2,mix,0,73,73,73,,,,,,,None,570.8491105140838,None,569.8749796747124,None,570.3495272827113,None,1,[0.008753905101912096],[0.5175525498907518],570.8491105140838,None,[3 1 2 2 1 1 1 2],space,0,3.2959915464416554,0.0025381995146744885,None,570.8657706755894,None,1,574.1629486757229,None,None,574.6625201047973,None,,,,,,,,,,,,,,,,,,,,,,,,,,,,,,,,,,,,,,,,,,,,,,,22_SU,22,22,F,2022-12-13_16h27.04.500,dynamic target,2022.1.3,120.0991056243167,
0,8,3,1,mix,0,74,74,74,,,,,,,None,575.6866483624162,None,574.7041539276161,575.703301147485,575.1870859774917,None,1,[0.04970338709972566],[0.5499274062494806],575.6866483624162,None,[1 0 0 3 3 0 3 2],space,0,4.568376383440409,0.0027046503964811563,None,575.7366189047789,None,1,580.3077230962954,None,None,580.8072890732219,None,,,,,,,,,,,,,,,,,,,,,,,,,,,,,,,,,,,,,,,,,,,,,,,22_SU,22,22,F,2022-12-13_16h27.04.500,dynamic target,2022.1.3,120.0991056243167,
0,7,2,2,mix,0,75,75,75,,,,,,,None,581.8314182929844,None,580.8405971449356,None,581.3318527009142,None,1,[0.00915223263837106],[0.5174063040303736],581.8314182929844,None,[0 2 1 1 2 0 2 3],space,0,3.273039926560159,0.0024692458755453117,None,581.8480704366248,None,0,585.136939362812,None,None,585.6281840786378,None,,,,,,,,,,,,,,,,,,,,,,,,,,,,,,,,,,,,,,,,,,,,,,,22_SU,22,22,F,2022-12-13_16h27.04.500,dynamic target,2022.1.3,120.0991056243167,
1,8,2,1,mix,0,76,76,76,,,,,,,None,586.6606352009294,None,585.6865300187274,None,586.1610673638588,None,1,[0.00866731215683103],[0.5176317663954251],586.6606352009294,None,[3 1 3 0 1 2 2 1],space,0,4.091093400587852,0.0023813700736354804,None,586.6772934381479,None,1,590.7738038387615,None,None,591.2733759092662,None,,,,,,,,,,,,,,,,,,,,,,,,,,,,,,,,,,,,,,,,,,,,,,,22_SU,22,22,F,2022-12-13_16h27.04.500,dynamic target,2022.1.3,120.0991056243167,
0,7,4,2,mix,0,77,77,77,,,,,,,None,592.297513467609,None,591.306693602417,None,591.7979279912342,None,1,[0.009369997855174006],[0.5176554992776801],592.297513467609,None,[2 0 0 2 3 1 2 2],space,0,3.078194259238444,0.002259819237224292,None,592.3141575933842,None,1,595.3948667062014,None,None,595.8944407009931,None,,,,,,,,,,,,,,,,,,,,,,,,,,,,,,,,,,,,,,,,,,,,,,,22_SU,22,22,F,2022-12-13_16h27.04.500,dynamic target,2022.1.3,120.0991056243167,
1,6,3,2,mix,0,78,78,78,,,,,,,None,596.926894453145,None,595.9360960116901,None,596.427322061927,None,1,[0.008688158608492813],[0.508815963377856],596.926894453145,None,[1 1 0 2 1 0 3 2],space,0,2.969719600341705,0.0029086248814564897,None,596.9352220643959,None,1,599.9077028271313,None,None,600.407269445488,None,,,,,,,,,,,,,,,,,,,,,,,,,,,,,,,,,,,,,,,,,,,,,,,22_SU,22,22,F,2022-12-13_16h27.04.500,dynamic target,2022.1.3,120.0991056243167,
1,5,1,2,mix,0,79,79,79,,,,,,,None,601.4314073245441,None,600.4405852143518,None,600.9318349974692,None,1,[0.008658973578349105],[0.5176654414299264],601.4314073245441,None,[3 3 3 3 2 1 0 1],space,0,4.18326068404167,0.002328772878172458,None,601.448064278904,None,1,605.6361518481026,None,None,606.1357187871745,None,,,,,,,,,,,,,,,,,,,,,,,,,,,,,,,,,,,,,,,,,,,,,,,22_SU,22,22,F,2022-12-13_16h27.04.500,dynamic target,2022.1.3,120.0991056243167,
0,4,4,2,mix,0,80,80,80,,,,,,,None,607.1598461467911,None,606.1690275003166,None,606.6602782455757,None,1,[0.008665067156471196],[0.5090074299951084],607.1598461467911,None,[2 3 1 3 2 0 0 2],space,0,1.3439422282317537,0.0024451922781736357,None,607.1681856244813,None,0,608.517023370794,None,None,609.0166015348768,None,,,,,,,,,,,,,,,,,,,,,,,,,,,,,,,,,,,,,,,,,,,,,,,22_SU,22,22,F,2022-12-13_16h27.04.500,dynamic target,2022.1.3,120.0991056243167,
0,3,1,2,mix,0,81,81,81,,,,,,,None,610.0490545814573,None,609.074946833538,None,609.5494796886633,None,1,[0.008705797910806723],[0.5175903942126752],610.0490545814573,None,[1 3 1 0 0 2 0 0],space,0,4.3176340093104955,0.0025205602123605786,None,610.0657076872412,None,1,614.3953535509681,None,None,614.894926262903,None,,,,,,,,,,,,,,,,,,,,,,,,,,,,,,,,,,,,,,,,,,,,,,,22_SU,22,22,F,2022-12-13_16h27.04.500,dynamic target,2022.1.3,120.0991056243167,
1,2,1,2,mix,0,82,82,82,,,,,,,None,615.919054520522,None,614.9282426731952,615.9273805923422,615.4194805898715,None,2,"[0.008632354267319897, 0.5504033467223053]","[0.4502749646653683, 1.0584903258059057]",615.919054520522,None,[3 1 1 1 2 0 0 2],space,0,3.330308329725085,0.0024615487236587796,None,616.4769141610577,None,1,619.8074147292045,None,None,620.3069887239963,None,,,,,,,,,,,,,,,,,,,,,,,,,,,,,,,,,,,,,,,,,,,,,,,22_SU,22,22,F,2022-12-13_16h27.04.500,dynamic target,2022.1.3,120.0991056243167,
1,1,3,2,mix,0,83,83,83,,,,,,,None,621.3311189059023,None,620.3486712954345,621.3477668802534,620.8315465788255,None,6,"[0.008585850649978966, 0.5254963299030351, 1.3165055449953798, 1.3412486766519578, 1.358323201424355, 1.3912169740124227]","[0.4168359772520489, 0.9505541467278817, 1.324607116592233, 1.349924006675792, 1.3828036678205535, 1.899328968835107]",621.3311189059023,None,[2 0 0 0 0 3 2 1],space,0,2.4694721690248116,0.0026514117707847618,None,622.7299320052971,None,1,625.2028327438074,None,None,625.7023894200101,None,,,,,,,,,,,,,,,,,,,,,,,,,,,,,,,,,,,,,,,,,,,,,,,22_SU,22,22,F,2022-12-13_16h27.04.500,dynamic target,2022.1.3,120.0991056243167,
0,2,4,1,mix,0,84,84,84,,,,,,,None,626.7265189604877,None,625.744077122883,626.7431762355609,626.2269427848369,None,1,[0.13317192836439062],[0.6412130452590645],626.7265189604877,None,[2 0 1 3 3 3 3 1],space,0,3.2762082661265595,0.0033540974673087476,None,626.8680705200113,None,1,630.1486226751003,None,None,630.648177427016,None,,,,,,,,,,,,,,,,,,,,,,,,,,,,,,,,,,,,,,,,,,,,,,,22_SU,22,22,F,2022-12-13_16h27.04.500,dynamic target,2022.1.3,120.0991056243167,
0,1,3,2,mix,0,85,85,85,,,,,,,None,631.6806195693007,None,630.6981982574307,None,631.181039865789,None,1,[0.008664425726237823],[0.517184048809213],631.6806195693007,None,[1 1 0 0 1 3 0 2],space,0,2.7980683338555536,0.0028316533753240947,None,631.6972864658128,None,1,634.4949011188783,None,None,634.9944776793873,None,,,,,,,,,,,,,,,,,,,,,,,,,,,,,,,,,,,,,,,,,,,,,,,22_SU,22,22,F,2022-12-13_16h27.04.500,dynamic target,2022.1.3,120.0991056243167,
1,8,3,2,mix,0,86,86,86,,,,,,,None,636.018612992726,None,635.0277889582467,None,635.5190297613535,None,1,[0.009318042088125367],[0.5176298421083629],636.018612992726,None,[2 1 0 1 0 1 0 1],space,0,2.459197755988498,0.002448399425702519,None,636.0352600049337,None,1,638.4998340301936,None,None,638.9993990449766,None,,,,,,,,,,,,,,,,,,,,,,,,,,,,,,,,,,,,,,,,,,,,,,,22_SU,22,22,F,2022-12-13_16h27.04.500,dynamic target,2022.1.3,120.0991056243167,
1,7,1,2,mix,0,87,87,87,,,,,,,None,640.0235285854542,None,639.032721869562,640.0318540158441,639.5239421469341,None,4,"[0.008561476339309593, 0.5419698355090077, 1.9991831399038347, 2.715048923408176]","[0.3165453136061842, 0.8914628017555515, 2.483026339969001, 3.2236384622756304]",640.0235285854542,None,[3 1 1 2 0 3 1 3],space,0,2.932218762474804,0.002354430045670597,None,642.7462101957099,None,1,645.6770461671895,None,None,646.1766394048573,None,,,,,,,,,,,,,,,,,,,,,,,,,,,,,,,,,,,,,,,,,,,,,,,22_SU,22,22,F,2022-12-13_16h27.04.500,dynamic target,2022.1.3,120.0991056243167,
1,4,2,0,mix,0,88,88,88,,,,,,,None,647.2007471367415,None,646.2099298372668,None,646.7011725646626,None,1,[0.008592264941398753],[0.5178052729970659],647.2007471367415,None,[0 2 0 1 2 0 1 2],space,0,5.228478556697155,0.002210108475992456,None,647.2174217304037,None,1,652.4462804642808,None,None,652.9458560626463,None,,,,,,,,,,,,,,,,,,,,,,,,,,,,,,,,,,,,,,,,,,,,,,,22_SU,22,22,F,2022-12-13_16h27.04.500,dynamic target,2022.1.3,120.0991056243167,
0,3,4,2,mix,0,89,89,89,,,,,,,None,653.9700077324305,None,652.9875501798087,None,653.4704100688996,None,1,[0.008097081594314659],[0.5172267038524296],653.9700077324305,None,[3 0 0 1 3 0 3 0],space,0,3.961877486859521,0.0019022224551008549,None,653.9866483303449,None,1,657.9499297153961,None,None,658.4495072380487,None,,,,,,,,,,,,,,,,,,,,,,,,,,,,,,,,,,,,,,,,,,,,,,,22_SU,22,22,F,2022-12-13_16h27.04.500,dynamic target,2022.1.3,120.0991056243167,
1,2,1,2,mix,0,90,90,90,,,,,,,None,659.4736294662325,None,658.482814347617,None,658.9657310031926,None,1,[0.008579757070037886],[0.5170015622006758],659.4736294662325,None,[2 0 2 0 3 2 0 1],space,0,4.9324564119961,0.00273255256433913,None,659.481958039627,None,1,664.4194376141149,None,None,664.9189936488892,None,,,,,,,,,,,,,,,,,,,,,,,,,,,,,,,,,,,,,,,,,,,,,,,22_SU,22,22,F,2022-12-13_16h27.04.500,dynamic target,2022.1.3,120.0991056243167,
1,1,1,2,mix,0,91,91,91,,,,,,,None,665.943131271375,None,664.9523074934659,None,665.4435608044423,None,1,[0.008706439341040095],[0.5089317413494427],665.943131271375,None,[2 2 1 2 2 1 3 3],space,0,2.8777851556897076,0.0026642403536243364,None,665.9514476576132,None,1,668.8323361781804,None,None,669.331913700833,None,,,,,,,,,,,,,,,,,,,,,,,,,,,,,,,,,,,,,,,,,,,,,,,22_SU,22,22,F,2022-12-13_16h27.04.500,dynamic target,2022.1.3,120.0991056243167,
1,3,2,0,mix,0,92,92,92,,,,,,,None,670.3560349668733,None,669.3652217725448,None,669.8564455777796,None,1,[0.00868398931925185],[0.5087989655039564],670.3560349668733,None,[3 0 1 3 1 3 2 3],space,0,5.344392190821964,0.002540123803555616,None,670.3643555224007,None,1,675.7098017117823,None,None,676.209396873739,None,,,,,,,,,,,,,,,,,,,,,,,,,,,,,,,,,,,,,,,,,,,,,,,22_SU,22,22,F,2022-12-13_16h27.04.500,dynamic target,2022.1.3,120.0991056243167,
0,2,1,2,mix,0,93,93,93,,,,,,,None,677.233503964193,None,676.2427078318833,None,676.7339303542594,None,1,[0.00867180216118868],[0.5177523550864862],677.233503964193,None,[0 3 3 0 2 1 1 1],space,0,3.289823563187383,0.0023156235802161973,None,677.2501577114072,None,1,680.5390240718771,None,None,681.0385961423817,None,,,,,,,,,,,,,,,,,,,,,,,,,,,,,,,,,,,,,,,,,,,,,,,22_SU,22,22,F,2022-12-13_16h27.04.500,dynamic target,2022.1.3,120.0991056243167,
1,1,2,2,mix,0,94,94,94,,,,,,,None,682.0627256828575,None,681.0719093455282,None,681.5631520729239,None,1,[0.008617601395599195],[0.5174957834042289],682.0627256828575,None,[1 0 1 0 1 0 2 2],space,0,4.460737506800797,0.002443588704409194,None,682.0793797507868,None,1,686.5422430843519,None,None,687.0418218898631,None,,,,,,,,,,,,,,,,,,,,,,,,,,,,,,,,,,,,,,,,,,,,,,,22_SU,22,22,F,2022-12-13_16h27.04.500,dynamic target,2022.1.3,120.0991056243167,
0,2,4,1,mix,0,95,95,95,,,,,,,None,688.065957523917,None,687.0751383001552,None,687.5663714061138,None,1,[0.00865063499986718],[0.5175333070128545],688.065957523917,None,[0 1 3 1 3 1 3 1],space,0,2.952869575790828,0.00236822077386023,None,688.0826045361246,None,1,691.0384139123435,None,None,691.5379879071352,None,,,,,,,,,,,,,,,,,,,,,,,,,,,,,,,,,,,,,,,,,,,,,,,22_SU,22,22,F,2022-12-13_16h27.04.500,dynamic target,2022.1.3,120.0991056243167,
0,1,3,2,mix,0,96,96,96,,,,,,,None,692.5621289933388,None,691.5796284649605,None,692.0625399891032,None,1,[0.008658973578349105],[0.5169290807007201],692.5621289933388,None,[1 3 1 0 3 1 0 0],space,0,3.081239123681371,0.003026006426807726,None,692.578769270538,None,1,695.659479986929,None,None,696.1590757903141,None,,,,,,,,,,,,,,,,,,,,,,,,,,,,,,,,,,,,,,,,,,,,,,,22_SU,22,22,F,2022-12-13_16h27.04.500,dynamic target,2022.1.3,120.0991056243167,
0,8,4,2,mix,0,97,97,97,,,,,,,None,697.183182560053,None,696.1923601291455,None,696.6836095915478,None,1,[0.008737548656426952],[0.5175156677105406],697.183182560053,None,[2 2 1 0 0 2 2 0],space,0,3.931591444710648,0.0024435887062281836,None,697.199840155843,None,1,701.129819819329,None,None,701.6293938141225,None,,,,,,,,,,,,,,,,,,,,,,,,,,,,,,,,,,,,,,,,,,,,,,,22_SU,22,22,F,2022-12-13_16h27.04.500,dynamic target,2022.1.3,120.0991056243167,
0,7,4,2,mix,0,98,98,98,,,,,,,None,702.661850388562,None,701.6794310009791,None,702.1622825514914,None,1,[0.008706439341040095],[0.5174762198148528],702.661850388562,None,[2 0 1 1 0 0 3 0],space,0,2.7093333380871627,0.0024394194169872208,None,702.6785012493438,None,1,705.3928558256375,None,None,705.8924343104336,None,,,,,,,,,,,,,,,,,,,,,,,,,,,,,,,,,,,,,,,,,,,,,,,22_SU,22,22,F,2022-12-13_16h27.04.500,dynamic target,2022.1.3,120.0991056243167,
1,6,2,2,mix,0,99,99,99,,,,,,,None,706.9165583987633,None,705.9424342943985,None,706.4169844681128,None,1,[0.008673405734953121],[0.5177315086384624],706.9165583987633,None,[3 1 2 0 1 3 2 2],space,0,2.837794289640442,0.002252442804092425,None,706.9332111838321,None,1,709.7724738353008,None,None,710.2720353222248,None,,,,,,,,,,,,,,,,,,,,,,,,,,,,,,,,,,,,,,,,,,,,,,,22_SU,22,22,F,2022-12-13_16h27.04.500,dynamic target,2022.1.3,120.0991056243167,
1,6,1,0,mix,0,100,100,100,,,,,,,None,711.296160051983,None,710.3137265529567,None,710.7965893284781,None,1,[0.00806789656598994],[0.5168415256139269],711.296160051983,None,[2 0 3 0 2 3 0 0],space,0,2.6984973537801125,0.002661674638147815,None,711.3128163649126,None,1,714.0104985925445,None,None,714.5100908680688,None,,,,,,,,,,,,,,,,,,,,,,,,,,,,,,,,,,,,,,,,,,,,,,,22_SU,22,22,F,2022-12-13_16h27.04.500,dynamic target,2022.1.3,120.0991056243167,
0,7,3,1,mix,0,101,101,101,,,,,,,None,715.5342179069721,None,714.5434008640696,None,715.0346599479108,None,1,[0.008725361500182771],[0.5092037073318352],715.5342179069721,None,[1 2 0 2 1 2 3 1],space,0,2.1646791213479446,0.0023476950391341234,None,715.5425544982318,None,1,717.707367487943,None,None,718.2069411620196,None,,,,,,,,,,,,,,,,,,,,,,,,,,,,,,,,,,,,,,,,,,,,,,,22_SU,22,22,F,2022-12-13_16h27.04.500,dynamic target,2022.1.3,120.0991056243167,
0,6,3,2,mix,0,102,102,102,,,,,,,None,719.2393961328889,None,718.2569020188021,None,718.7398340686796,None,1,[0.008649993571452796],[0.5173902683018241],719.2393961328889,None,[3 1 2 1 1 3 0 0],space,0,2.8024752732217166,0.002679634655578411,None,719.2560556529643,None,1,722.061992529274,None,None,722.5615649204938,None,,,,,,,,,,,,,,,,,,,,,,,,,,,,,,,,,,,,,,,,,,,,,,,22_SU,22,22,F,2022-12-13_16h27.04.500,dynamic target,2022.1.3,120.0991056243167,
0,5,4,2,mix,0,103,103,103,,,,,,,None,723.5857038258382,None,722.5948723507772,None,723.0861346417641,None,1,[0.00868847932179051],[0.5088339233952865],723.5857038258382,None,[0 3 3 1 2 1 1 3],space,0,7.936975601473023,0.002833577666024212,None,723.5940311163722,None,1,731.5289299004471,None,None,732.0285071023864,None,,,,,,,,,,,,,,,,,,,,,,,,,,,,,,,,,,,,,,,,,,,,,,,22_SU,22,22,F,2022-12-13_16h27.04.500,dynamic target,2022.1.3,120.0991056243167,
0,6,3,1,mix,0,104,104,104,,,,,,,None,733.0609601489668,None,732.0701720345205,733.0692842964982,732.5613823697422,None,1,[0.5175987327929761],[1.0247261337826785],733.0609601489668,None,[3 0 0 0 0 1 3 1],space,0,2.840761861867577,0.0031068265070643974,None,733.585511974361,None,1,736.4247598729598,None,None,736.9243354713253,None,,,,,,,,,,,,,,,,,,,,,,,,,,,,,,,,,,,,,,,,,,,,,,,22_SU,22,22,F,2022-12-13_16h27.04.500,dynamic target,2022.1.3,120.0991056243167,
1,5,3,2,mix,0,105,105,105,,,,,,,None,737.9567878764756,None,736.9659718598596,737.9651152311544,737.4572158701139,None,2,"[0.008620808539490099, 0.3594825847158063]","[0.22542323904417572, 0.8669082502856327]",737.9567878764756,None,[1 0 0 2 2 0 3 2],space,0,3.3670416975455737,0.002626716746817692,None,738.3231436958577,None,1,741.6952938659815,None,None,742.194848297182,None,,,,,,,,,,,,,,,,,,,,,,,,,,,,,,,,,,,,,,,,,,,,,,,22_SU,22,22,F,2022-12-13_16h27.04.500,dynamic target,2022.1.3,120.0991056243167,
0,4,3,2,mix,0,106,106,106,,,,,,,None,743.2189733476553,None,742.2281550860371,None,742.7194035862958,None,1,[0.008604452095823945],[0.5177892372666975],743.2189733476553,None,[3 1 3 1 2 1 0 1],space,0,1.653910647464727,0.0021536627064051572,None,743.2356258120108,None,0,744.9008741717953,None,None,745.4004529773065,None,,,,,,,,,,,,,,,,,,,,,,,,,,,,,,,,,,,,,,,,,,,,,,,22_SU,22,22,F,2022-12-13_16h27.04.500,dynamic target,2022.1.3,120.0991056243167,
1,3,2,2,mix,0,107,107,107,,,,,,,None,746.4329063446021,None,745.4504545648433,746.4495655439623,745.9333285653775,None,3,"[0.07522232738119783, 0.24148366424196865, 0.77505687071789]","[0.09976693669705128, 0.6751161067040812, 1.2829680981976708]",746.4329063446021,None,[2 1 3 2 3 3 1 1],space,0,2.8897583939797187,0.002390670795648475,None,747.2155718485701,None,1,750.1131041741974,None,None,750.6126746411301,None,,,,,,,,,,,,,,,,,,,,,,,,,,,,,,,,,,,,,,,,,,,,,,,22_SU,22,22,F,2022-12-13_16h27.04.500,dynamic target,2022.1.3,120.0991056243167,
0,2,1,2,mix,0,108,108,108,,,,,,,None,751.6451648906041,None,750.6626845672454,751.6617843213535,751.1455547192036,None,1,[0.16642682559540845],[0.6667364755448943],751.6451648906041,None,[1 1 0 1 3 0 1 0],space,0,3.477121853746212,0.0025077316277020145,None,751.8116638769843,None,1,755.2920292478902,None,None,755.791599394106,None,,,,,,,,,,,,,,,,,,,,,,,,,,,,,,,,,,,,,,,,,,,,,,,22_SU,22,22,F,2022-12-13_16h27.04.500,dynamic target,2022.1.3,120.0991056243167,
1,1,2,2,mix,0,109,109,109,,,,,,,None,756.8157254067228,None,755.8249068243913,None,756.316151155359,None,1,[0.009387637157487916],[0.5174512040757691],756.8157254067228,None,[0 2 1 1 2 0 2 3],space,0,5.112634517643528,0.0026373003274784423,None,756.8323881339456,None,1,761.944695011638,None,None,762.4442629128534,None,,,,,,,,,,,,,,,,,,,,,,,,,,,,,,,,,,,,,,,,,,,,,,,22_SU,22,22,F,2022-12-13_16h27.04.500,dynamic target,2022.1.3,120.0991056243167,
0,8,2,2,mix,0,110,110,110,,,,,,,None,763.4767393715993,None,762.4859021878201,763.4850481248304,762.9771490845051,None,1,[0.14113430982433783],[0.6414920669649291],763.4767393715993,None,[1 0 0 3 1 3 3 3],space,0,2.742461873764114,0.0024782258842606097,None,763.618233843923,None,1,766.3659324761065,None,None,766.8654994151784,None,,,,,,,,,,,,,,,,,,,,,,,,,,,,,,,,,,,,,,,,,,,,,,,22_SU,22,22,F,2022-12-13_16h27.04.500,dynamic target,2022.1.3,120.0991056243167,
1,7,3,2,mix,0,111,111,111,,,,,,,None,767.8896295970844,None,766.9071502358711,None,767.3900537421468,None,1,[0.008696176473677042],[0.5178036694251205],767.8896295970844,None,[1 0 3 0 1 3 3 2],space,0,2.8701537516990356,0.0022412177931983024,None,767.9062810992946,None,1,770.7788364923199,None,None,771.2784088835397,None,,,,,,,,,,,,,,,,,,,,,,,,,,,,,,,,,,,,,,,,,,,,,,,22_SU,22,22,F,2022-12-13_16h27.04.500,dynamic target,2022.1.3,120.0991056243167,
0,6,2,2,mix,0,112,112,112,,,,,,,None,772.3108590436877,None,771.3367561064861,None,771.811288640898,None,1,[0.007862639218728873],[0.5164508952275355],772.3108590436877,None,[3 0 1 2 1 0 3 2],space,0,3.0732789872236026,0.0027655861667881254,None,772.3275394102129,None,1,775.3998987183295,None,None,775.8994714302626,None,,,,,,,,,,,,,,,,,,,,,,,,,,,,,,,,,,,,,,,,,,,,,,,22_SU,22,22,F,2022-12-13_16h27.04.500,dynamic target,2022.1.3,120.0991056243167,
0,5,4,2,mix,0,113,113,113,,,,,,,None,776.9319260804168,None,775.9494906571035,None,776.4323624126337,None,1,[0.00869104503908602],[0.5174765405299695],776.9319260804168,None,[1 0 3 2 3 1 3 1],space,0,3.251291307155043,0.002403820097242715,None,776.94858335549,None,1,780.2041229786573,None,None,780.7037139713229,None,,,,,,,,,,,,,,,,,,,,,,,,,,,,,,,,,,,,,,,,,,,,,,,22_SU,22,22,F,2022-12-13_16h27.04.500,dynamic target,2022.1.3,120.0991056243167,
1,4,3,2,mix,0,114,114,114,,,,,,,None,781.7361676593318,None,780.7703317824653,None,781.2366139337028,None,1,[0.03260256372959702],[0.541575356546673],781.7361676593318,None,[2 0 2 0 2 1 2 2],space,0,3.3818474872132356,0.002200807752160472,None,781.7778012255803,None,1,785.1582550175008,None,None,785.6578290122925,None,,,,,,,,,,,,,,,,,,,,,,,,,,,,,,,,,,,,,,,,,,,,,,,22_SU,22,22,F,2022-12-13_16h27.04.500,dynamic target,2022.1.3,120.0991056243167,
0,5,1,1,mix,0,115,115,115,,,,,,,None,786.6819729849267,None,785.699521525883,None,786.1823782078282,None,1,[0.008663142869409057],[0.5170002793420281],786.6819729849267,None,[2 2 0 3 1 3 2 1],space,0,4.7337496615637065,0.002888099146730383,None,786.6986087721216,None,1,791.4362513979158,None,None,791.935816733414,None,,,,,,,,,,,,,,,,,,,,,,,,,,,,,,,,,,,,,,,,,,,,,,,22_SU,22,22,F,2022-12-13_16h27.04.500,dynamic target,2022.1.3,120.0991056243167,
1,4,3,2,mix,0,116,116,116,,,,,,,None,792.9599392181699,None,791.9691257672712,None,792.4603668910931,None,1,[0.008887963804227184],[0.5174922555434023],792.9599392181699,None,[1 1 2 1 1 2 1 0],space,0,2.742476305922537,0.002404461527476087,None,792.9765961725279,None,1,795.7242556775309,None,None,796.2238274273204,None,,,,,,,,,,,,,,,,,,,,,,,,,,,,,,,,,,,,,,,,,,,,,,,22_SU,22,22,F,2022-12-13_16h27.04.500,dynamic target,2022.1.3,120.0991056243167,
0,7,2,0,mix,0,117,117,117,,,,,,,None,797.2479579299415,None,796.2571473654752,None,796.7483984314495,None,1,[0.008595792800406343],[0.5177934065559384],797.2479579299415,None,[1 0 3 0 3 3 2 1],space,0,5.253605904448705,0.002202090610808227,None,797.2646097528668,None,1,802.5184755665196,None,None,803.0180242248571,None,,,,,,,,,,,,,,,,,,,,,,,,,,,,,,,,,,,,,,,,,,,,,,,22_SU,22,22,F,2022-12-13_16h27.04.500,dynamic target,2022.1.3,120.0991056243167,
1,6,1,2,mix,0,118,118,118,,,,,,,None,804.0421704424934,None,803.0513704616078,None,803.542593304699,None,1,[0.008635882128146477],[0.5178399101750983],804.0421704424934,None,[0 3 2 3 2 1 1 2],space,0,5.963581764261107,0.0021357026853365824,None,804.0588277175684,None,1,810.0204045045011,None,None,810.5199849135861,None,,,,,,,,,,,,,,,,,,,,,,,,,,,,,,,,,,,,,,,,,,,,,,,22_SU,22,22,F,2022-12-13_16h27.04.500,dynamic target,2022.1.3,120.0991056243167,
0,5,2,2,mix,0,119,119,119,,,,,,,None,811.5524495058926,None,810.5783270050997,811.5774296456402,811.0528624259441,None,1,[0.0407916904114245],[0.5412450205039931],811.5524495058926,None,[2 1 3 0 2 1 0 3],space,0,3.2606763785952353,0.002680276083992794,None,811.594057735685,None,1,814.8579606335661,None,space,815.3658577496044,None,1.3665250263202324,,,,,,,,,,,,,,,,,,,,,,,,,,,,,,,,,,,,,,,,,,,,,,22_SU,22,22,F,2022-12-13_16h27.04.500,dynamic target,2022.1.3,120.0991056243167,
1,4,4,2,mix,0,120,120,120,,,,,,,None,817.7804682882215,None,816.7896634966182,817.7887933978982,817.2808917918555,None,3,"[0.024831969602018944, 0.20835576999161276, 0.4161255944036384]","[0.03299255268575507, 0.2748533773010422, 0.9165186301506765]",817.7804682882215,None,[3 2 1 0 2 3 1 3],space,0,2.7212873335010954,0.002452568716762471,None,818.1967805385248,None,1,820.9194592623498,None,None,821.419034540002,None,,,,,,,,,,,,,,,,,,,,,,,,,,,,,,,,,,,,,,,,,,,,,,,22_SU,22,22,F,2022-12-13_16h27.04.500,dynamic target,2022.1.3,120.0991056243167,
1,7,4,0,mix,0,121,121,121,,,,,,,None,822.4514872658674,None,821.4606693249643,None,821.9519126937885,None,1,[0.008130115198582644],[0.5170256157962285],822.4514872658674,None,[1 2 1 2 1 1 1 0],space,0,2.753643588415798,0.0023111335758585483,None,822.4681535209493,None,1,825.2241336456245,None,None,825.7237018675532,None,,,,,,,,,,,,,,,,,,,,,,,,,,,,,,,,,,,,,,,,,,,,,,,22_SU,22,22,F,2022-12-13_16h27.04.500,dynamic target,2022.1.3,120.0991056243167,
0,6,1,2,mix,0,122,122,122,,,,,,,None,826.7561558762773,None,825.78203497906,None,826.2565800213415,None,1,[0.00861888425242796],[0.5170224086505186],826.7561558762773,None,[0 1 0 3 1 3 1 0],space,0,3.985039816232529,0.0028653284080064623,None,826.7728186035001,None,1,830.7610778832968,None,None,831.2606554059494,None,,,,,,,,,,,,,,,,,,,,,,,,,,,,,,,,,,,,,,,,,,,,,,,22_SU,22,22,F,2022-12-13_16h27.04.500,dynamic target,2022.1.3,120.0991056243167,
0,5,4,2,mix,0,123,123,123,,,,,,,None,832.2847804564226,None,831.2939564219414,None,831.7852126193502,None,1,[0.008650314282931504],[0.5169759050313587],832.2847804564226,None,[1 1 1 1 2 0 3 1],space,0,2.6644441979005933,0.0030314585728774546,None,832.3014316379194,None,1,834.9658304247205,None,None,835.4654037780838,None,,,,,,,,,,,,,,,,,,,,,,,,,,,,,,,,,,,,,,,,,,,,,,,22_SU,22,22,F,2022-12-13_16h27.04.500,dynamic target,2022.1.3,120.0991056243167,
1,4,2,2,mix,0,124,124,124,,,,,,,None,836.4978645218143,None,835.5070472223397,None,835.9982838561573,None,1,[0.008594830656875274],[0.5174973869779933],836.4978645218143,None,[1 2 0 0 3 3 2 2],space,0,3.858367810737036,0.0024807916015561204,None,836.5145102511615,None,1,840.3778874336658,None,None,840.8774614284575,None,,,,,,,,,,,,,,,,,,,,,,,,,,,,,,,,,,,,,,,,,,,,,,,22_SU,22,22,F,2022-12-13_16h27.04.500,dynamic target,2022.1.3,120.0991056243167,
1,3,4,2,mix,0,125,125,125,,,,,,,None,841.9099147957513,None,840.9274809760118,841.9265691843939,841.4103565801179,None,1,[0.2329568250788725],[0.7413369373098249],841.9099147957513,None,[2 3 3 3 3 2 2 3],space,0,2.941838597005699,0.002940375627076719,None,842.1513756892564,None,0,845.0988715015264,None,None,845.59843940274,None,,,,,,,,,,,,,,,,,,,,,,,,,,,,,,,,,,,,,,,,,,,,,,,22_SU,22,22,F,2022-12-13_16h27.04.500,dynamic target,2022.1.3,120.0991056243167,
0,2,3,2,mix,0,126,126,126,,,,,,,None,846.6309020707595,None,845.648460233153,846.6475458758196,846.1313194808154,None,1,[0.39949012792385474],[0.907982810980684],846.6309020707595,None,[1 2 2 2 0 1 3 0],space,0,4.550014830962027,0.003019592133568949,None,847.0388789485187,None,1,851.593335165684,None,None,852.0929085190473,None,,,,,,,,,,,,,,,,,,,,,,,,,,,,,,,,,,,,,,,,,,,,,,,22_SU,22,22,F,2022-12-13_16h27.04.500,dynamic target,2022.1.3,120.0991056243167,
0,1,2,2,mix,0,127,127,127,,,,,,,None,853.1253622070562,None,852.1345522840184,853.1336921274506,852.6257905214097,None,1,[0.14140050294554385],[0.6415029712607065],853.1253622070562,None,[3 2 0 1 3 3 2 2],space,0,3.55431272736314,0.0029445449163176818,None,853.266923388017,None,1,856.8222269331636,None,None,857.3217848922268,None,,,,,,,,,,,,,,,,,,,,,,,,,,,,,,,,,,,,,,,,,,,,,,,22_SU,22,22,F,2022-12-13_16h27.04.500,dynamic target,2022.1.3,120.0991056243167,
1,8,2,2,mix,0,128,128,128,,,,,,,None,858.3459153948461,None,857.3550968125146,858.3542405045227,857.8463546134972,None,1,[0.4162853102770896],[0.9164102286158595],858.3459153948461,None,[3 0 1 0 1 2 3 2],space,0,4.858192379850152,0.0026167745927523356,None,858.7622369458732,None,1,863.6247517268075,None,None,864.1243250801708,None,,,,,,,,,,,,,,,,,,,,,,,,,,,,,,,,,,,,,,,,,,,,,,,22_SU,22,22,F,2022-12-13_16h27.04.500,dynamic target,2022.1.3,120.0991056243167,
0,7,4,2,mix,0,129,129,129,,,,,,,None,865.1484530170746,None,864.1576507911868,None,864.6488794071411,None,1,[0.008668595015478786],[0.5177757672536245],865.1484530170746,None,[0 1 2 1 0 2 3 0],space,0,3.783126240481579,0.0021183840981393587,None,865.1651077264323,None,1,868.953554111129,None,None,869.4531258609186,None,,,,,,,,,,,,,,,,,,,,,,,,,,,,,,,,,,,,,,,,,,,,,,,22_SU,22,22,F,2022-12-13_16h27.04.500,dynamic target,2022.1.3,120.0991056243167,
1,8,3,1,mix,0,130,130,130,,,,,,,None,870.4772461006723,None,869.4864281597693,870.4855731346361,869.9776779428867,None,1,[0.04978677289545885],[0.5580565593027131],870.4772461006723,None,[3 1 3 2 3 2 2 2],space,0,4.700437997846166,0.0030250442814576672,None,870.5355308484159,None,1,875.2398679040707,None,None,875.7394325981386,None,,,,,,,,,,,,,,,,,,,,,,,,,,,,,,,,,,,,,,,,,,,,,,,22_SU,22,22,F,2022-12-13_16h27.04.500,dynamic target,2022.1.3,120.0991056243167,
0,6,4,0,mix,0,131,131,131,,,,,,,None,876.7718715332758,None,875.7894367513927,None,876.2723194112205,None,1,[0.008564042056605103],[0.5169726978874678],876.7718715332758,None,[0 0 3 1 2 0 3 2],space,0,3.103668940902935,0.002852179111869191,None,876.7885416369336,None,1,879.8942273616394,None,None,880.3938003942876,None,,,,,,,,,,,,,,,,,,,,,,,,,,,,,,,,,,,,,,,,,,,,,,,22_SU,22,22,F,2022-12-13_16h27.04.500,dynamic target,2022.1.3,120.0991056243167,
0,5,3,2,mix,0,132,132,132,,,,,,,None,881.4262386879964,None,880.4438228282743,None,880.9266788687892,None,1,[0.0086057349544717],[0.5174040590281948],881.4262386879964,None,[0 3 3 3 0 2 0 1],space,0,3.0401555829812423,0.0026635989252099534,None,881.4429084709391,None,1,884.4819917146597,None,None,884.981565068023,None,,,,,,,,,,,,,,,,,,,,,,,,,,,,,,,,,,,,,,,,,,,,,,,22_SU,22,22,F,2022-12-13_16h27.04.500,dynamic target,2022.1.3,120.0991056243167,
0,4,1,2,mix,0,133,133,133,,,,,,,None,886.0056878734922,None,885.0148686497305,None,885.5061126599849,None,1,[0.009240749868695275],[0.5174297161975119],886.0056878734922,None,[1 3 0 3 3 0 2 1],space,0,3.5325416579362354,0.0026751446494017728,None,886.0223412999912,None,1,889.552667912536,None,None,890.0522470387623,None,,,,,,,,,,,,,,,,,,,,,,,,,,,,,,,,,,,,,,,,,,,,,,,22_SU,22,22,F,2022-12-13_16h27.04.500,dynamic target,2022.1.3,120.0991056243167,
1,3,1,2,mix,0,134,134,134,,,,,,,None,891.0763675992312,None,890.0855451683237,None,890.5767984793001,None,1,[0.009096107583900448],[0.5173774397153466],891.0763675992312,None,[0 2 1 1 0 1 2 3],space,0,3.454102563084234,0.0024955444714578334,None,891.0930332128846,None,1,894.5484097847475,None,None,895.0479847416827,None,,,,,,,,,,,,,,,,,,,,,,,,,,,,,,,,,,,,,,,,,,,,,,,22_SU,22,22,F,2022-12-13_16h27.04.500,dynamic target,2022.1.3,120.0991056243167,
1,1,4,0,mix,0,135,135,135,,,,,,,None,896.0721111391558,None,895.0812831919575,None,895.5725390686512,None,1,[0.00862593997408112],[0.5086575303630525],896.0721111391558,None,[1 3 2 3 3 0 1 2],space,0,3.187003102750168,0.002870139129299787,None,896.0804403539805,None,1,899.2693916076059,None,None,899.7689639988239,None,,,,,,,,,,,,,,,,,,,,,,,,,,,,,,,,,,,,,,,,,,,,,,,22_SU,22,22,F,2022-12-13_16h27.04.500,dynamic target,2022.1.3,120.0991056243167,
0,8,1,2,mix,0,136,136,136,,,,,,,None,900.8014244218411,None,899.8189841878084,None,900.3018540190515,None,1,[0.008720550782527425],[0.5169156106876471],900.8014244218411,None,[2 1 1 0 0 0 1 1],space,0,2.945006295143685,0.0031167686593107646,None,900.8180768861948,None,0,903.7738962045678,None,None,904.2734647472116,None,,,,,,,,,,,,,,,,,,,,,,,,,,,,,,,,,,,,,,,,,,,,,,,22_SU,22,22,F,2022-12-13_16h27.04.500,dynamic target,2022.1.3,120.0991056243167,
0,7,3,2,mix,0,137,137,137,,,,,,,None,905.3059149073615,None,904.3234939162048,None,904.8063396938524,None,1,[0.00870162861974677],[0.518143626903111],905.3059149073615,None,[3 2 1 2 2 2 1 3],space,0,2.5500372809838154,0.0017928587785718264,None,905.3225676924303,None,1,907.8787313941448,None,None,908.3782983332148,None,,,,,,,,,,,,,,,,,,,,,,,,,,,,,,,,,,,,,,,,,,,,,,,22_SU,22,22,F,2022-12-13_16h27.04.500,dynamic target,2022.1.3,120.0991056243167,
1,6,2,2,mix,0,138,138,138,,,,,,,None,909.4024237044014,None,908.4116189127981,None,908.9028507358962,None,1,[0.0091865491012868],[0.5180329803661152],909.4024237044014,None,[0 1 1 0 3 2 3 1],space,0,3.6860109721237677,0.001832948100854992,None,909.4190819416199,None,1,913.1076039187483,None,None,913.6071766306832,None,,,,,,,,,,,,,,,,,,,,,,,,,,,,,,,,,,,,,,,,,,,,,,,22_SU,22,22,F,2022-12-13_16h27.04.500,dynamic target,2022.1.3,120.0991056243167,
1,5,4,2,mix,0,139,139,139,,,,,,,None,914.6313122647371,None,913.6404856645386,None,914.1317283919343,None,1,[0.008816765162919182],[0.5174752576713217],914.6313122647371,None,[1 1 1 3 1 1 2 3],space,0,2.8423821120431967,0.002574760979769053,None,914.6479573526558,None,1,917.4955316437881,None,None,917.9951088457274,None,,,,,,,,,,,,,,,,,,,,,,,,,,,,,,,,,,,,,,,,,,,,,,,22_SU,22,22,F,2022-12-13_16h27.04.500,dynamic target,2022.1.3,120.0991056243167,
1,4,2,2,mix,0,140,140,140,,,,,,,None,919.0275574023017,None,918.036748120694,None,918.527989244516,None,1,[0.008651276428281562],[0.5177212457710993],919.0275574023017,None,[2 1 1 2 0 3 1 1],space,0,3.229116137328674,0.002233199926195084,None,919.0442130738029,None,1,922.2748039872531,None,None,922.7743609841709,None,,,,,,,,,,,,,,,,,,,,,,,,,,,,,,,,,,,,,,,,,,,,,,,22_SU,22,22,F,2022-12-13_16h27.04.500,dynamic target,2022.1.3,120.0991056243167,
1,3,3,2,mix,0,141,141,141,,,,,,,None,923.8068204450428,None,922.8243770038662,923.8234806065484,923.3072458729657,None,2,"[0.09241583727271063, 0.11682253930848674]","[0.10857472185307415, 0.6172829251227085]",923.8068204450428,None,[3 2 0 3 1 3 3 2],space,0,3.2777076068996394,0.0020686733350885333,None,923.923390261245,None,1,927.2039488306273,None,None,927.7035016582558,None,,,,,,,,,,,,,,,,,,,,,,,,,,,,,,,,,,,,,,,,,,,,,,,22_SU,22,22,F,2022-12-13_16h27.04.500,dynamic target,2022.1.3,120.0991056243167,
0,2,3,2,mix,0,142,142,142,,,,,,,None,928.7276142008577,None,927.7451948132766,None,928.2280540609372,None,1,[0.008669236447531148],[0.5170458208176569],928.7276142008577,None,[2 0 0 2 1 0 1 0],space,0,4.409345878029853,0.003049739307243726,None,928.7442820595152,None,1,933.1571902450178,None,None,933.6567635983811,None,,,,,,,,,,,,,,,,,,,,,,,,,,,,,,,,,,,,,,,,,,,,,,,22_SU,22,22,F,2022-12-13_16h27.04.500,dynamic target,2022.1.3,120.0991056243167,
0,5,1,0,mix,0,143,143,143,,,,,,,None,934.6808912145698,None,933.6900777636711,None,934.1813208117801,None,1,[0.008694572898093611],[0.5174730126673239],934.6808912145698,None,[2 2 0 3 2 1 3 2],space,0,3.575368923937276,0.002587268849310931,None,934.6975456032123,None,1,938.2778283259631,None,None,938.7774064900459,None,,,,,,,,,,,,,,,,,,,,,,,,,,,,,,,,,,,,,,,,,,,,,,,22_SU,22,22,F,2022-12-13_16h27.04.500,dynamic target,2022.1.3,120.0991056243167,
0,6,3,1,mix,0,144,144,144,,,,,,,None,939.8015383396669,None,938.8107139203294,None,939.3019579305837,None,1,[0.008768978686930495],[0.5088621462800802],939.8015383396669,None,[1 3 3 0 3 1 1 1],space,0,2.87842241560611,0.00240959295842913,None,939.8098601780548,None,1,942.6907361907524,None,None,943.1903069783984,None,,,,,,,,,,,,,,,,,,,,,,,,,,,,,,,,,,,,,,,,,,,,,,,22_SU,22,22,F,2022-12-13_16h27.04.500,dynamic target,2022.1.3,120.0991056243167,
0,7,4,1,mix,0,145,145,145,,,,,,,None,944.2144369037323,None,943.2236198608298,None,943.7148632296539,None,1,[0.008637806415208615],[0.5086584925065836],944.2144369037323,None,[3 1 2 2 0 0 1 1],space,0,5.042132467795454,0.002881684853491606,None,944.222752327827,None,1,949.268466345975,None,None,949.7680538107797,None,,,,,,,,,,,,,,,,,,,,,,,,,,,,,,,,,,,,,,,,,,,,,,,22_SU,22,22,F,2022-12-13_16h27.04.500,dynamic target,2022.1.3,120.0991056243167,
1,6,4,2,mix,0,146,146,146,,,,,,,None,950.7921625689505,None,949.8013436017609,None,950.2925930641632,None,1,[0.008616639250249136],[0.5090321250190755],950.7921625689505,None,[3 3 2 2 1 3 2 3],space,0,5.503069589454753,0.0024426265626971144,None,950.8004940287756,None,1,956.3041397520301,None,None,956.8037179161129,None,,,,,,,,,,,,,,,,,,,,,,,,,,,,,,,,,,,,,,,,,,,,,,,22_SU,22,22,F,2022-12-13_16h27.04.500,dynamic target,2022.1.3,120.0991056243167,
0,5,3,2,mix,0,147,147,147,,,,,,,None,957.8278413630123,None,956.8454085054163,None,957.3282690359356,None,1,[0.008647748567454983],[0.5170695536962739],957.8278413630123,None,[1 1 1 3 2 1 1 3],space,0,3.2113517554444115,0.0028178626471344614,None,957.8444999209441,None,1,961.0584216928801,None,None,961.5579947255283,None,,,,,,,,,,,,,,,,,,,,,,,,,,,,,,,,,,,,,,,,,,,,,,,22_SU,22,22,F,2022-12-13_16h27.04.500,dynamic target,2022.1.3,120.0991056243167,
1,4,4,2,mix,0,148,148,148,,,,,,,None,962.5821239452907,None,961.5913056836725,None,962.0825496939269,None,1,[0.008707080769454478],[0.5170753265592793],962.5821239452907,None,[0 0 2 1 0 2 0 2],space,0,3.14552893166001,0.0029025313051533885,None,962.5987751267876,None,1,965.7460963420253,None,None,966.2456818825449,None,,,,,,,,,,,,,,,,,,,,,,,,,,,,,,,,,,,,,,,,,,,,,,,22_SU,22,22,F,2022-12-13_16h27.04.500,dynamic target,2022.1.3,120.0991056243167,
0,3,3,2,mix,0,149,149,149,,,,,,,None,967.269796990864,None,966.2789838606805,None,966.7702313987938,None,1,[0.009033888951307745],[0.5177372815014678],967.269796990864,None,[0 2 3 2 0 2 1 0],space,0,2.344718678286881,0.0023675793472648365,None,967.2864533037937,None,1,969.6344341006861,None,None,970.1340244519233,None,,,,,,,,,,,,,,,,,,,,,,,,,,,,,,,,,,,,,,,,,,,,,,,22_SU,22,22,F,2022-12-13_16h27.04.500,dynamic target,2022.1.3,120.0991056243167,
0,2,1,2,mix,0,150,150,150,,,,,,,None,971.166479743506,None,970.1756425597268,971.1748042117524,970.6669006814227,None,2,"[0.04137603242088517, 0.2495342422171234]","[0.09993114257486013, 0.7500504323706991]",971.166479743506,None,[0 2 0 1 3 1 0 2],space,0,2.662923369251075,0.0024859230343281524,None,971.4162651052575,None,1,974.0806626091999,None,None,974.5802465461456,None,,,,,,,,,,,,,,,,,,,,,,,,,,,,,,,,,,,,,,,,,,,,,,,22_SU,22,22,F,2022-12-13_16h27.04.500,dynamic target,2022.1.3,120.0991056243167,
1,1,4,2,mix,0,151,151,151,,,,,,,None,975.6126902920023,None,974.6302564722628,975.6293430770711,975.1131173234971,None,2,"[0.009361979989989777, 0.37494134931694134]","[0.0502296797640156, 0.8750377240558009]",975.6126902920023,None,[1 1 3 2 1 2 3 1],space,0,2.9234850623943203,0.0027408911446400452,None,975.9873824460719,None,1,978.9098814414338,None,None,979.4094599262298,None,,,,,,,,,,,,,,,,,,,,,,,,,,,,,,,,,,,,,,,,,,,,,,,22_SU,22,22,F,2022-12-13_16h27.04.500,dynamic target,2022.1.3,120.0991056243167,
1,8,2,2,mix,0,152,152,152,,,,,,,None,980.4335817695555,None,979.4427641493676,None,979.9340270817829,None,1,[0.008632354267319897],[0.5174720505237929],980.4335817695555,None,[1 3 3 2 1 0 1 3],space,0,2.8923908194446994,0.002580854556072154,None,980.4502387239154,None,1,983.3477678423969,None,None,983.8473415164735,None,,,,,,,,,,,,,,,,,,,,,,,,,,,,,,,,,,,,,,,,,,,,,,,22_SU,22,22,F,2022-12-13_16h27.04.500,dynamic target,2022.1.3,120.0991056243167,
1,7,4,2,mix,0,153,153,153,,,,,,,None,984.8714691326641,None,983.8806495881872,None,984.3719009748766,None,1,[0.008660897867230233],[0.5176141270949302],984.8714691326641,None,[0 1 2 0 3 2 1 3],space,0,3.605986264270541,0.0021584734258794924,None,984.8881244834502,None,1,988.4933982502462,None,None,988.992961020027,None,,,,,,,,,,,,,,,,,,,,,,,,,,,,,,,,,,,,,,,,,,,,,,,22_SU,22,22,F,2022-12-13_16h27.04.500,dynamic target,2022.1.3,120.0991056243167,
1,6,4,2,mix,0,154,154,154,,,,,,,None,990.0254137458924,None,989.0513056772579,None,989.5258388531001,None,1,[0.008661860010761302],[0.5176388221188972],990.0254137458924,None,[2 3 2 1 1 1 2 2],space,0,3.140233933558193,0.0024297979780385504,None,990.0420668516763,None,1,993.1810603915219,None,None,993.6806308584546,None,,,,,,,,,,,,,,,,,,,,,,,,,,,,,,,,,,,,,,,,,,,,,,,22_SU,22,22,F,2022-12-13_16h27.04.500,dynamic target,2022.1.3,120.0991056243167,
0,5,4,2,mix,0,155,155,155,,,,,,,None,994.7047684167956,None,993.7139389301665,None,994.2051758846992,None,1,[0.009258068457711488],[0.5179111088164063],994.7047684167956,None,[2 0 0 2 0 2 3 3],space,0,3.147894843292306,0.001967648235222441,None,994.7214144668596,None,1,997.8687449828212,None,None,998.3683045454563,None,,,,,,,,,,,,,,,,,,,,,,,,,,,,,,,,,,,,,,,,,,,,,,,22_SU,22,22,F,2022-12-13_16h27.04.500,dynamic target,2022.1.3,120.0991056243167,
1,4,1,2,mix,0,156,156,156,,,,,,,None,999.3924331237904,None,998.4016161450309,None,998.8928662488615,None,1,[0.008612469961008173],[0.5175727549085423],999.3924331237904,None,[2 1 2 2 0 1 2 0],space,0,3.5168436402418592,0.0023197928712761495,None,999.4090881538614,None,1,1002.9227603777636,None,None,1003.4223334104117,None,,,,,,,,,,,,,,,,,,,,,,,,,,,,,,,,,,,,,,,,,,,,,,,22_SU,22,22,F,2022-12-13_16h27.04.500,dynamic target,2022.1.3,120.0991056243167,
0,3,4,2,mix,0,157,157,157,,,,,,,None,1004.446470006611,None,1003.4640329797257,None,1003.9468851716647,None,1,[0.00902202251018025],[0.5172914882023179],1004.446470006611,None,[1 2 0 1 2 3 2 3],space,0,3.998182379968057,0.002502600193110993,None,1004.4631327338338,None,1,1008.4597103882988,None,None,1008.9592924009576,None,,,,,,,,,,,,,,,,,,,,,,,,,,,,,,,,,,,,,,,,,,,,,,,22_SU,22,22,F,2022-12-13_16h27.04.500,dynamic target,2022.1.3,120.0991056243167,
1,2,2,2,mix,0,158,158,158,,,,,,,None,1009.9834113578527,None,1008.9925831540822,None,1009.4838345407716,None,1,[0.009690391743788496],[0.5175778863431333],1009.9834113578527,None,[1 0 0 2 0 1 0 2],space,0,3.277640898259051,0.002541085945267696,None,1010.0000641429215,None,1,1013.2806121287213,None,None,1013.7801748985021,None,,,,,,,,,,,,,,,,,,,,,,,,,,,,,,,,,,,,,,,,,,,,,,,22_SU,22,22,F,2022-12-13_16h27.04.500,dynamic target,2022.1.3,120.0991056243167,
1,6,2,0,mix,0,159,159,159,,,,,,,None,1014.8043124568449,None,1013.8134820080722,None,1014.304730508331,None,1,[0.008994120338684297],[0.5173854575805308],1014.8043124568449,None,[2 3 3 1 2 3 1 1],space,0,2.5522970360798354,0.0022258234894252382,None,1014.8209601104809,None,1,1017.3771141907564,None,None,1017.8766769605372,None,,,,,,,,,,,,,,,,,,,,,,,,,,,,,,,,,,,,,,,,,,,,,,,22_SU,22,22,F,2022-12-13_16h27.04.500,dynamic target,2022.1.3,120.0991056243167,
0,5,1,2,mix,0,160,160,160,,,,,,,None,1018.9091421942721,None,1017.926709015961,None,1018.4095689050519,None,1,[0.008655125004224828],[0.5171773138044955],1018.9091421942721,None,[2 1 0 0 2 2 1 0],space,0,6.079112144432656,0.002670654646863113,None,1018.9257911307668,None,1,1025.003953769632,None,None,1025.5035261608518,None,,,,,,,,,,,,,,,,,,,,,,,,,,,,,,,,,,,,,,,,,,,,,,,22_SU,22,22,F,2022-12-13_16h27.04.500,dynamic target,2022.1.3,120.0991056243167,
1,4,4,2,mix,0,161,161,161,,,,,,,None,1026.5359776038586,None,1025.5451750572556,None,1026.0364065596405,None,1,[0.00870515648057335],[0.5175118191345973],1026.5359776038586,None,[1 0 3 0 0 1 2 1],space,0,3.491962601307023,0.002275213540997356,None,1026.5526294267838,None,1,1030.0496572041975,None,None,1030.5492244639827,None,,,,,,,,,,,,,,,,,,,,,,,,,,,,,,,,,,,,,,,,,,,,,,,22_SU,22,22,F,2022-12-13_16h27.04.500,dynamic target,2022.1.3,120.0991056243167,
0,3,2,2,mix,0,162,162,162,,,,,,,None,1031.5816932897214,None,1030.5908598903734,None,1031.0737781495227,None,1,[0.008631712837086525],[0.5164794388274458],1031.5816932897214,None,[1 2 3 1 0 0 2 1],space,0,3.382709568068094,0.003159744417644106,None,1031.590004544527,None,1,1034.9704592985909,None,None,1035.4700291240933,None,,,,,,,,,,,,,,,,,,,,,,,,,,,,,,,,,,,,,,,,,,,,,,,22_SU,22,22,F,2022-12-13_16h27.04.500,dynamic target,2022.1.3,120.0991056243167,
1,6,1,0,mix,0,163,163,163,,,,,,,None,1036.4941583438558,None,1035.5033436100985,None,1035.994587941068,None,1,[0.008654483573991456],[0.5173572346957371],1036.4941583438558,None,[3 2 3 1 0 3 1 0],space,0,2.189180434192167,0.002613888162159128,None,1036.5108133739286,None,1,1038.7006270291222,None,None,1039.2001885160444,None,,,,,,,,,,,,,,,,,,,,,,,,,,,,,,,,,,,,,,,,,,,,,,,22_SU,22,22,F,2022-12-13_16h27.04.500,dynamic target,2022.1.3,120.0991056243167,
1,5,2,2,mix,0,164,164,164,,,,,,,None,1040.2326415626248,None,1039.2585264382687,None,1039.733065386974,None,1,[0.00951399871155445],[0.5172241381351341],1040.2326415626248,None,[3 1 2 0 3 2 0 0],space,0,4.546473179596433,0.002288683554070303,None,1040.249301082702,None,1,1044.7954216066082,None,None,1045.2950023364065,None,,,,,,,,,,,,,,,,,,,,,,,,,,,,,,,,,,,,,,,,,,,,,,,22_SU,22,22,F,2022-12-13_16h27.04.500,dynamic target,2022.1.3,120.0991056243167,
0,4,2,2,mix,0,165,165,165,,,,,,,None,1046.3191232175886,None,1045.3282953345333,None,1045.8195489662248,None,1,[0.008647748567454983],[0.5176394635473116],1046.3191232175886,None,[2 0 0 2 3 2 2 3],space,0,4.763698953376661,0.0024490408541169018,None,1046.3357756819441,None,1,1051.098356433873,None,None,1051.5979583308344,None,,,,,,,,,,,,,,,,,,,,,,,,,,,,,,,,,,,,,,,,,,,,,,,22_SU,22,22,F,2022-12-13_16h27.04.500,dynamic target,2022.1.3,120.0991056243167,
0,3,3,2,mix,0,166,166,166,,,,,,,None,1052.63041169813,None,1051.6479823683949,None,1052.1308396917684,None,1,[0.009266407036193414],[0.5176012985084526],1052.63041169813,None,[3 3 2 1 0 2 0 3],space,0,5.508436748343229,0.002353147188841831,None,1052.6470683317748,None,1,1058.159051031147,None,None,1058.6586186116474,None,,,,,,,,,,,,,,,,,,,,,,,,,,,,,,,,,,,,,,,,,,,,,,,22_SU,22,22,F,2022-12-13_16h27.04.500,dynamic target,2022.1.3,120.0991056243167,
1,2,3,2,mix,0,167,167,167,,,,,,,None,1059.6910671682217,None,1058.700242171597,None,1059.191489388997,None,1,[0.00871125006051443],[0.5177831436903944],1059.6910671682217,None,[1 3 1 2 3 0 0 1],space,0,4.382834646763513,0.0022463492259703344,None,1059.707725084725,None,1,1064.0956476783322,None,None,1064.5952290495607,None,,,,,,,,,,,,,,,,,,,,,,,,,,,,,,,,,,,,,,,,,,,,,,,22_SU,22,22,F,2022-12-13_16h27.04.500,dynamic target,2022.1.3,120.0991056243167,
1,1,2,2,mix,0,168,168,168,,,,,,,None,1065.6276737575608,None,1064.6368622309492,None,1065.1280982233384,None,1,[0.008224405290093273],[0.5169823193245975],1065.6276737575608,None,[3 3 3 2 3 0 2 2],space,0,3.934424637516713,0.0020888783565169433,None,1065.6443284669167,None,1,1069.5826390129441,None,None,1070.0822120455923,None,,,,,,,,,,,,,,,,,,,,,,,,,,,,,,,,,,,,,,,,,,,,,,,22_SU,22,22,F,2022-12-13_16h27.04.500,dynamic target,2022.1.3,120.0991056243167,
1,8,2,2,mix,0,169,169,169,,,,,,,None,1071.1146647714577,None,1070.1238481134133,1071.1230120104428,1070.6150901993788,None,2,"[0.009456590798436082, 0.3582815085264883]","[0.21704841860446322, 0.858507772678422]",1071.1146647714577,None,[0 0 2 1 2 2 3 3],space,0,3.114030588312744,0.002607794585856027,None,1071.4726967640217,None,0,1074.5950407259443,None,None,1075.0946102307335,None,,,,,,,,,,,,,,,,,,,,,,,,,,,,,,,,,,,,,,,,,,,,,,,22_SU,22,22,F,2022-12-13_16h27.04.500,dynamic target,2022.1.3,120.0991056243167,
1,7,2,2,mix,0,170,170,170,,,,,,,None,1076.127061353025,None,1075.1362456571242,1076.1353960841388,1075.6274899880918,None,1,[0.041477378234048956],[0.5415262872120366],1076.127061353025,None,[3 2 2 1 2 0 2 2],space,0,4.545780436053974,0.0028656491267611273,None,1076.1686978057041,None,1,1080.7231479292914,None,None,1081.2227270555177,None,,,,,,,,,,,,,,,,,,,,,,,,,,,,,,,,,,,,,,,,,,,,,,,22_SU,22,22,F,2022-12-13_16h27.04.500,dynamic target,2022.1.3,120.0991056243167,
1,6,4,2,mix,0,171,171,171,,,,,,,None,1082.246846012411,None,1081.256036089373,1082.255175932807,1081.747273364621,None,2,"[0.009151591209956678, 0.5671084082714515]","[0.0752175166617235, 1.074790966238652]",1082.246846012411,None,[3 3 2 1 0 3 2 2],space,0,2.661648207988037,0.0029602599333884427,None,1082.8213603623062,None,1,1085.4857767884096,None,None,1085.985339237477,None,,,,,,,,,,,,,,,,,,,,,,,,,,,,,,,,,,,,,,,,,,,,,,,22_SU,22,22,F,2022-12-13_16h27.04.500,dynamic target,2022.1.3,120.0991056243167,
0,5,3,2,mix,0,172,172,172,,,,,,,None,1087.0094675592372,None,1086.018641857041,None,1086.5098897158696,None,1,[0.008640372130685137],[0.5087854954890645],1087.0094675592372,None,[2 3 3 0 3 3 0 0],space,0,2.368362079567305,0.0027328732794558164,None,1087.0177877940514,None,1,1089.390763483565,None,None,1089.8903349126394,None,,,,,,,,,,,,,,,,,,,,,,,,,,,,,,,,,,,,,,,,,,,,,,,22_SU,22,22,F,2022-12-13_16h27.04.500,dynamic target,2022.1.3,120.0991056243167,
1,4,1,2,mix,0,173,173,173,,,,,,,None,1090.922790204222,None,1089.9319696976017,1090.9311169174707,1090.4232207635778,None,1,[0.06746071326233505],[0.5748347437820485],1090.922790204222,None,[0 3 1 2 2 3 0 0],space,0,3.652473204612761,0.002830691233612015,None,1090.9977351134712,None,1,1094.6529470304558,None,None,1095.1525178181018,None,,,,,,,,,,,,,,,,,,,,,,,,,,,,,,,,,,,,,,,,,,,,,,,22_SU,22,22,F,2022-12-13_16h27.04.500,dynamic target,2022.1.3,120.0991056243167,
0,3,3,2,mix,0,174,174,174,,,,,,,None,1096.184974071828,None,1095.2025293477927,None,1095.6854020654664,None,1,[0.008652559286929318],[0.517530741295559],1096.184974071828,None,[2 3 2 1 2 1 3 1],space,0,2.863534202284427,0.0023877843632362783,None,1096.2016291019008,None,1,1099.0658616302517,None,None,1099.565431135039,None,,,,,,,,,,,,,,,,,,,,,,,,,,,,,,,,,,,,,,,,,,,,,,,22_SU,22,22,F,2022-12-13_16h27.04.500,dynamic target,2022.1.3,120.0991056243167,
1,2,2,2,mix,0,175,175,175,,,,,,,None,1100.5978806537587,None,1099.6154497204498,None,1100.0983169859755,None,1,[0.009462684374739183],[0.5174236226193898],1100.5978806537587,None,[3 3 2 2 0 2 2 1],space,0,3.6834295402804855,0.0025773266970645636,None,1100.6145196480993,None,1,1104.3030627923927,None,None,1104.80263229718,None,,,,,,,,,,,,,,,,,,,,,,,,,,,,,,,,,,,,,,,,,,,,,,,22_SU,22,22,F,2022-12-13_16h27.04.500,dynamic target,2022.1.3,120.0991056243167,
1,1,2,2,mix,0,176,176,176,,,,,,,None,1105.8350847023303,None,1104.8442811935856,None,1105.3355168652597,None,1,[0.008662501439175685],[0.5177331122122268],1105.8350847023303,None,[1 0 0 0 1 1 0 0],space,0,2.8136460835739854,0.0022473113695014035,None,1105.8517390909728,None,1,1108.6660248098415,None,None,1109.1656113125027,None,,,,,,,,,,,,,,,,,,,,,,,,,,,,,,,,,,,,,,,,,,,,,,,22_SU,22,22,F,2022-12-13_16h27.04.500,dynamic target,2022.1.3,120.0991056243167,
1,8,3,2,mix,0,177,177,177,,,,,,,None,1110.1897100643782,None,1109.2156055236046,None,1109.6901377373015,None,1,[0.008616639250249136],[0.5177590900930227],1110.1897100643782,None,[3 0 0 2 3 1 1 0],space,0,2.9697924025567772,0.002170660580304684,None,1110.2063650944492,None,1,1113.1788359150323,None,None,1113.6784163241173,None,,,,,,,,,,,,,,,,,,,,,,,,,,,,,,,,,,,,,,,,,,,,,,,22_SU,22,22,F,2022-12-13_16h27.04.500,dynamic target,2022.1.3,120.0991056243167,
0,5,1,0,mix,0,178,178,178,,,,,,,None,1114.702530470293,None,1113.7117157365356,None,1114.2029568603593,None,1,[0.008596434230639716],[0.5177879544098687],1114.702530470293,None,[2 1 1 1 1 3 2 1],space,0,2.2012707333124126,0.0021203083870204864,None,1114.719193518231,None,1,1116.9256387913301,None,None,1117.4252240111327,None,,,,,,,,,,,,,,,,,,,,,,,,,,,,,,,,,,,,,,,,,,,,,,,22_SU,22,22,F,2022-12-13_16h27.04.500,dynamic target,2022.1.3,120.0991056243167,
1,4,1,2,mix,0,179,179,179,,,,,,,None,1118.4576661534174,None,1117.4668517403752,1118.465991263094,1117.9580915813385,None,4,"[0.00877122368910932, 0.5923213868209132, 0.8006175038972287, 1.0087699408304616]","[0.4669203732992173, 0.6174997281941614, 0.8838169656100945, 1.516111899891257]",1118.4576661534174,None,[0 3 0 2 2 3 2 2],space,0,3.143879175740949,0.00296410850569373,None,1119.4734671205006,None,1,1122.6208034093252,None,space,1123.1286912246396,None,1.4292619341867976,,,,,,,,,,,,,,,,,,,,,,,,,,,,,,,,,,,,,,,,,,,,,,22_SU,22,22,F,2022-12-13_16h27.04.500,dynamic target,2022.1.3,120.0991056243167,
1,3,3,2,mix,0,180,180,180,,,,,,,None,1125.6015829831413,None,1124.610756703658,1125.6099055271006,1125.1020061660602,None,2,"[0.04978613146704447, 0.24126172973592475]","[0.12499947883770801, 0.7504744170764752]",1125.6015829831413,None,[3 2 2 1 3 1 0 2],space,0,2.812473230269461,0.002018000428506639,None,1125.851366741319,None,1,1128.6656399523163,None,None,1129.1652489050011,None,,,,,,,,,,,,,,,,,,,,,,,,,,,,,,,,,,,,,,,,,,,,,,,22_SU,22,22,F,2022-12-13_16h27.04.500,dynamic target,2022.1.3,120.0991056243167,
0,3,1,0,mix,0,181,181,181,,,,,,,None,1130.1976635299725,None,1129.223557000767,None,1129.6897628219303,None,1,[0.008621129254606785],[0.5164787973972125],1130.1976635299725,None,[2 3 3 2 3 1 3 3],space,0,1.817339432947847,0.0026632782119122567,None,1130.2059914619367,None,1,1132.0211132837758,None,None,1132.5206917685719,None,,,,,,,,,,,,,,,,,,,,,,,,,,,,,,,,,,,,,,,,,,,,,,,22_SU,22,22,F,2022-12-13_16h27.04.500,dynamic target,2022.1.3,120.0991056243167,
0,2,3,2,mix,0,182,182,182,,,,,,,None,1133.5448132911843,None,1132.5623220635298,1133.5614638312509,1133.045243850538,None,2,"[0.008683668602316175, 0.16683894386005704]","[0.03388606357111712, 0.6675587877889484]",1133.5448132911843,None,[0 3 2 2 3 3 3 3],space,0,2.680627777504924,0.0023980472342373105,None,1133.7113385761622,None,0,1136.4007149369954,None,None,1136.9002870075,None,,,,,,,,,,,,,,,,,,,,,,,,,,,,,,,,,,,,,,,,,,,,,,,22_SU,22,22,F,2022-12-13_16h27.04.500,dynamic target,2022.1.3,120.0991056243167,
1,1,3,2,mix,0,183,183,183,,,,,,,None,1137.9327397333655,None,1136.9419314138995,1137.941066446614,1137.4331674062887,None,1,[0.3577988330489461],[0.8582367688395607],1137.9327397333655,None,[3 2 1 1 2 0 0 1],space,0,2.9006896305254486,0.002727741844864795,None,1138.290776857364,None,1,1141.1966298026618,None,None,1141.6962031560251,None,,,,,,,,,,,,,,,,,,,,,,,,,,,,,,,,,,,,,,,,,,,,,,,22_SU,22,22,F,2022-12-13_16h27.04.500,dynamic target,2022.1.3,120.0991056243167,
0,8,4,2,mix,0,184,184,184,,,,,,,None,1142.7203391107942,None,1141.7295109070237,None,1142.2207552379914,None,1,[0.008547364897822263],[0.5174489590735902],1142.7203391107942,None,[2 2 1 2 2 1 2 0],space,0,2.8382827379809896,0.002373352210270241,None,1142.7369816329956,None,1,1145.5762282487358,None,None,1146.0758044885297,None,,,,,,,,,,,,,,,,,,,,,,,,,,,,,,,,,,,,,,,,,,,,,,,22_SU,22,22,F,2022-12-13_16h27.04.500,dynamic target,2022.1.3,120.0991056243167,
1,1,4,1,mix,0,185,185,185,,,,,,,None,1147.0999321047184,None,1146.1091237852543,None,1146.6003565704978,None,1,[0.008623053541668924],[0.51773599864282],1147.0999321047184,None,[0 2 0 3 3 3 0 3],space,0,4.106540619462976,0.002207222043580259,None,1147.1165897005085,None,1,1151.2214226450815,None,None,1151.7209953570164,None,,,,,,,,,,,,,,,,,,,,,,,,,,,,,,,,,,,,,,,,,,,,,,,22_SU,22,22,F,2022-12-13_16h27.04.500,dynamic target,2022.1.3,120.0991056243167,
0,5,3,0,mix,0,186,186,186,,,,,,,None,1152.7451256030654,None,1151.7543098430215,None,1152.2455451939804,None,1,[0.008658011434818036],[0.5089009527455346],1152.7451256030654,None,[1 3 0 1 2 2 2 1],space,0,4.230096882587532,0.002686048948817188,None,1152.7534477621666,None,1,1156.983159596888,None,None,1157.4827499481253,None,,,,,,,,,,,,,,,,,,,,,,,,,,,,,,,,,,,,,,,,,,,,,,,22_SU,22,22,F,2022-12-13_16h27.04.500,dynamic target,2022.1.3,120.0991056243167,
0,4,2,2,mix,0,187,187,187,,,,,,,None,1158.5068804507464,None,1157.5160634719869,None,1158.0073039543804,None,1,[0.008641013560918509],[0.5171577502114815],1158.5068804507464,None,[0 1 0 1 1 1 0 0],space,0,3.147681568079861,0.0028890612920804415,None,1158.5235383672498,None,1,1161.6708493196202,None,None,1162.1704271629878,None,,,,,,,,,,,,,,,,,,,,,,,,,,,,,,,,,,,,,,,,,,,,,,,22_SU,22,22,F,2022-12-13_16h27.04.500,dynamic target,2022.1.3,120.0991056243167,
1,3,2,2,mix,0,188,188,188,,,,,,,None,1163.2028673809837,None,1162.2204460691137,None,1162.7033040339174,None,1,[0.00938635429884016],[0.5174528076477145],1163.2028673809837,None,[0 1 1 3 0 2 1 3],space,0,3.4751093696086173,0.002614850303871208,None,1163.2195320324936,None,1,1166.6998999691168,None,None,1167.1994726810499,None,,,,,,,,,,,,,,,,,,,,,,,,,,,,,,,,,,,,,,,,,,,,,,,22_SU,22,22,F,2022-12-13_16h27.04.500,dynamic target,2022.1.3,120.0991056243167,
0,2,3,2,mix,0,189,189,189,,,,,,,None,1168.2319244447717,None,1167.2411058624384,None,1167.732352117695,None,1,[0.008693290041264845],[0.5175105362759496],1168.2319244447717,None,[1 0 0 0 2 3 3 3],space,0,3.389718785727382,0.002639866044773953,None,1168.2485826819902,None,1,1171.6373603007287,None,None,1172.1369320505182,None,,,,,,,,,,,,,,,,,,,,,,,,,,,,,,,,,,,,,,,,,,,,,,,22_SU,22,22,F,2022-12-13_16h27.04.500,dynamic target,2022.1.3,120.0991056243167,
1,1,2,2,mix,0,190,190,190,,,,,,,None,1173.161077370154,None,1172.170242367234,None,1172.661487018917,None,1,[0.008671481447890983],[0.5091392436970636],1173.161077370154,None,[1 3 2 2 0 2 0 2],space,0,3.315782203191702,0.0020596933263732353,None,1173.1693729099443,None,1,1176.4832325594598,None,None,1176.9828068749666,None,,,,,,,,,,,,,,,,,,,,,,,,,,,,,,,,,,,,,,,,,,,,,,,22_SU,22,22,F,2022-12-13_16h27.04.500,dynamic target,2022.1.3,120.0991056243167,
1,8,4,2,mix,0,191,191,191,,,,,,,None,1178.0152573558298,None,1177.032825139664,None,1177.515688877329,None,1,[0.007737560523310094],[0.5162100385605299],1178.0152573558298,None,[2 0 2 1 3 3 2 0],space,0,3.1742072315028054,0.00255744239075284,None,1178.0319088580418,None,1,1181.204208288742,None,None,1181.7037835663923,None,,,,,,,,,,,,,,,,,,,,,,,,,,,,,,,,,,,,,,,,,,,,,,,22_SU,22,22,F,2022-12-13_16h27.04.500,dynamic target,2022.1.3,120.0991056243167,
1,2,3,0,mix,0,192,192,192,,,,,,,None,1182.7362552785617,None,1181.7538172253899,None,1182.2366620408939,None,1,[0.0086057349544717],[0.5089606056626508],1182.7362552785617,None,[3 3 2 1 0 1 2 2],space,0,2.396993234360707,0.002653015342730214,None,1182.7445636469365,None,1,1185.1425169104805,None,None,1185.6420937917046,None,,,,,,,,,,,,,,,,,,,,,,,,,,,,,,,,,,,,,,,,,,,,,,,22_SU,22,22,F,2022-12-13_16h27.04.500,dynamic target,2022.1.3,120.0991056243167,
0,6,2,0,mix,0,193,193,193,,,,,,,None,1186.6745471589984,None,1185.683732104526,1186.6828729101035,1186.1749725869195,None,1,[0.19125462590636744],[0.6998351847651065],1186.6745471589984,None,[2 1 2 0 1 2 2 2],space,0,3.019301757321955,0.0029156806031096494,None,1186.8743770519723,None,1,1189.8968020584762,None,None,1190.3963978618613,None,,,,,,,,,,,,,,,,,,,,,,,,,,,,,,,,,,,,,,,,,,,,,,,22_SU,22,22,F,2022-12-13_16h27.04.500,dynamic target,2022.1.3,120.0991056243167,
0,7,4,1,mix,0,194,194,194,,,,,,,None,1191.428830382707,None,1190.454721351929,None,1190.9292551691979,None,1,[0.008658973578349105],[0.5175708306214801],1191.428830382707,None,[3 2 2 1 3 3 3 2],space,0,2.8468345928831695,0.00208919906981464,None,1191.4454809227736,None,1,1194.2930558553362,None,None,1194.7926304915563,None,,,,,,,,,,,,,,,,,,,,,,,,,,,,,,,,,,,,,,,,,,,,,,,22_SU,22,22,F,2022-12-13_16h27.04.500,dynamic target,2022.1.3,120.0991056243167,
0,8,1,1,mix,0,195,195,195,,,,,,,None,1195.8167584284602,None,1194.825936638983,None,1195.3171857806701,None,1,[0.009253578453353839],[0.5175454941690987],1195.8167584284602,None,[2 1 1 0 3 3 1 0],space,0,3.755202902817473,0.002461548725477769,None,1195.833411534244,None,1,1199.5885433687927,None,None,1200.0881279471669,None,,,,,,,,,,,,,,,,,,,,,,,,,,,,,,,,,,,,,,,,,,,,,,,22_SU,22,22,F,2022-12-13_16h27.04.500,dynamic target,2022.1.3,120.0991056243167,
0,7,1,2,mix,0,196,196,196,,,,,,,None,1201.112247224777,None,1200.121429283874,None,1200.6126752184155,None,1,[0.00864357927821402],[0.5174521662193001],1201.112247224777,None,[0 0 2 2 0 0 1 3],space,0,5.787733305758593,0.0023855393646954326,None,1201.128900009846,None,1,1206.9156350614194,None,None,1207.4152106597849,None,,,,,,,,,,,,,,,,,,,,,,,,,,,,,,,,,,,,,,,,,,,,,,,22_SU,22,22,F,2022-12-13_16h27.04.500,dynamic target,2022.1.3,120.0991056243167,
1,6,1,2,mix,0,197,197,197,,,,,,,None,1208.44766274422,None,1207.4568473690342,None,1207.948090417145,None,1,[0.00870868434139993],[0.5175855834932008],1208.44766274422,None,[3 1 3 0 2 3 0 0],space,0,3.8279441820250213,0.002412158673905651,None,1208.4643177742928,None,1,1212.2943871416537,None,None,1212.7939598535886,None,,,,,,,,,,,,,,,,,,,,,,,,,,,,,,,,,,,,,,,,,,,,,,,22_SU,22,22,F,2022-12-13_16h27.04.500,dynamic target,2022.1.3,120.0991056243167,
1,5,3,2,mix,0,198,198,198,,,,,,,None,1213.8180952310704,None,1212.8272676045872,None,1213.3185202741352,None,1,[0.008704835767275654],[0.5089092913258355],1213.8180952310704,None,[2 0 3 1 3 2 0 2],space,0,2.7218848248085123,0.0025952867144951597,None,1213.8264135415975,None,1,1216.5491092632965,None,None,1217.0486665809294,None,,,,,,,,,,,,,,,,,,,,,,,,,,,,,,,,,,,,,,,,,,,,,,,22_SU,22,22,F,2022-12-13_16h27.04.500,dynamic target,2022.1.3,120.0991056243167,
1,4,1,2,mix,0,199,199,199,,,,,,,None,1218.0728086292766,None,1217.090302007322,None,1217.5732205871846,None,1,[0.008652238571812632],[0.5173755154282844],1218.0728086292766,None,[3 2 2 3 1 0 3 0],space,0,4.4263264334222185,0.0025757231251191115,None,1218.089449547906,None,1,1222.5190085941904,None,None,1223.0185800232648,None,,,,,,,,,,,,,,,,,,,,,,,,,,,,,,,,,,,,,,,,,,,,,,,22_SU,22,22,F,2022-12-13_16h27.04.500,dynamic target,2022.1.3,120.0991056243167,
1,3,4,2,mix,0,200,200,200,,,,,,,None,1224.0427082808837,None,1223.0518957921286,None,1223.5431365952372,None,1,[0.009395334307555459],[0.5175573606084072],1224.0427082808837,None,[1 2 3 0 1 3 2 1],space,0,5.176352812199184,0.0023954815169417998,None,1224.059362028098,None,1,1229.2382906296498,None,None,1229.7378687937326,None,,,,,,,,,,,,,,,,,,,,,,,,,,,,,,,,,,,,,,,,,,,,,,,22_SU,22,22,F,2022-12-13_16h27.04.500,dynamic target,2022.1.3,120.0991056243167,
1,3,2,0,mix,0,201,201,201,,,,,,,None,1230.7619839020517,None,1229.771164357575,None,1230.2624109335466,None,1,[0.008663463582706754],[0.5176166928104067],1230.7619839020517,None,[3 1 0 3 2 0 0 1],space,0,2.056245193205541,0.002235124215076212,None,1230.7786507985638,None,1,1232.8352171574625,None,None,1233.3347950008301,None,,,,,,,,,,,,,,,,,,,,,,,,,,,,,,,,,,,,,,,,,,,,,,,22_SU,22,22,F,2022-12-13_16h27.04.500,dynamic target,2022.1.3,120.0991056243167,
1,4,4,1,mix,0,202,202,202,,,,,,,None,1234.3589219755904,None,1233.3764323515097,1234.3755901549612,1233.8593461206528,None,4,"[0.008642296419566264, 0.45824792970779527, 0.4914896776408568, 1.4411320327508292]","[0.2254062411702762, 0.4665274979088281, 0.8421061071439908, 1.948854359328834]",1234.3589219755904,None,[0 1 3 0 0 2 1 1],space,0,1.444379779166411,0.0031979094546841225,None,1235.807698561628,None,1,1237.2564645640832,None,None,1237.7560244474334,None,,,,,,,,,,,,,,,,,,,,,,,,,,,,,,,,,,,,,,,,,,,,,,,22_SU,22,22,F,2022-12-13_16h27.04.500,dynamic target,2022.1.3,120.0991056243167,
1,4,1,0,mix,0,203,203,203,,,,,,,None,1238.7884807011596,None,1237.7976585909673,1238.7968038865492,1238.2889061290807,None,1,[0.06650017302490596],[0.5669656902718998],1238.7884807011596,None,[3 1 3 2 1 1 0 1],space,0,3.308055226250872,0.002652373914315831,None,1238.8551053114516,None,1,1242.1606061762577,None,None,1242.6601808124797,None,,,,,,,,,,,,,,,,,,,,,,,,,,,,,,,,,,,,,,,,,,,,,,,22_SU,22,22,F,2022-12-13_16h27.04.500,dynamic target,2022.1.3,120.0991056243167,
0,3,4,2,mix,0,204,204,204,,,,,,,None,1243.6843241436854,None,1242.701863704633,None,1243.1847328944477,None,1,[0.008679178597958526],[0.5170512729637267],1243.6843241436854,None,[3 1 3 2 2 1 2 0],space,0,3.326246158556387,0.0029528834984375862,None,1243.7009608930239,None,1,1247.0314553675926,None,None,1247.5310428323992,None,,,,,,,,,,,,,,,,,,,,,,,,,,,,,,,,,,,,,,,,,,,,,,,22_SU,22,22,F,2022-12-13_16h27.04.500,dynamic target,2022.1.3,120.0991056243167,
0,2,1,2,mix,0,205,205,205,,,,,,,None,1248.5551585821468,None,1247.5643422448175,None,1248.0555865757851,None,1,[0.00864357927821402],[0.517592639214854],1248.5551585821468,None,[0 1 1 2 3 0 1 0],space,0,3.527457048614451,0.00255391452992626,None,1248.5718293272348,None,1,1252.1021354140448,None,None,1252.6017087674081,None,,,,,,,,,,,,,,,,,,,,,,,,,,,,,,,,,,,,,,,,,,,,,,,22_SU,22,22,F,2022-12-13_16h27.04.500,dynamic target,2022.1.3,120.0991056243167,
0,1,2,2,mix,0,206,206,206,,,,,,,None,1253.625836704312,None,1252.6350203669808,None,1253.1262624529481,None,1,[0.009176286233923747],[0.5175576813235239],1253.625836704312,None,[1 3 1 0 3 0 2 1],space,0,2.5673821681684785,0.0021296091108524706,None,1253.6424946208153,None,1,1256.2069738107675,None,None,1256.706545239842,None,,,,,,,,,,,,,,,,,,,,,,,,,,,,,,,,,,,,,,,,,,,,,,,22_SU,22,22,F,2022-12-13_16h27.04.500,dynamic target,2022.1.3,120.0991056243167,
0,8,4,2,mix,0,207,207,207,,,,,,,None,1257.7390037385703,None,1256.74818323195,None,1257.2394243557737,None,1,[0.008755829388974234],[0.5175785277715477],1257.7390037385703,None,[1 1 2 0 0 0 0 3],space,0,3.382981854767422,0.0022463492259703344,None,1257.755647222917,None,0,1261.1444309352337,None,None,1261.6440033264535,None,,,,,,,,,,,,,,,,,,,,,,,,,,,,,,,,,,,,,,,,,,,,,,,22_SU,22,22,F,2022-12-13_16h27.04.500,dynamic target,2022.1.3,120.0991056243167,
0,7,3,2,mix,0,208,208,208,,,,,,,None,1262.6681322255008,None,1261.694030891873,1262.6931126859636,1262.1685582948503,None,1,[0.2746099549167411],[0.7749359613117122],1262.6681322255008,None,[3 0 1 3 3 2 0 1],space,0,2.8027818763821415,0.002617736738102394,None,1262.9428993305737,None,1,1265.748846790466,None,None,1266.2484172573968,None,,,,,,,,,,,,,,,,,,,,,,,,,,,,,,,,,,,,,,,,,,,,,,,22_SU,22,22,F,2022-12-13_16h27.04.500,dynamic target,2022.1.3,120.0991056243167,
0,6,1,2,mix,0,209,209,209,,,,,,,None,1267.272541987155,None,1266.2817272533975,None,1266.7729680565062,None,1,[0.00862337425678561],[0.5173232389479381],1267.272541987155,None,[1 3 0 0 1 3 3 1],space,0,4.120489138997073,0.0021145355221960926,None,1267.2892024693756,None,1,1271.4106843504433,None,None,1271.9102596280936,None,,,,,,,,,,,,,,,,,,,,,,,,,,,,,,,,,,,,,,,,,,,,,,,22_SU,22,22,F,2022-12-13_16h27.04.500,dynamic target,2022.1.3,120.0991056243167,
0,5,4,2,mix,0,210,210,210,,,,,,,None,1272.9344080907322,None,1271.951944444534,None,1272.4348142757772,None,1,[0.0095508808917657],[0.5175153469972429],1272.9344080907322,None,[0 2 2 1 2 1 1 1],space,0,3.450486185214686,0.002435250127746258,None,1272.9510397086378,None,1,1276.4064355233768,None,None,1276.906002783162,None,,,,,,,,,,,,,,,,,,,,,,,,,,,,,,,,,,,,,,,,,,,,,,,22_SU,22,22,F,2022-12-13_16h27.04.500,dynamic target,2022.1.3,120.0991056243167,
1,4,3,2,mix,0,211,211,211,,,,,,,None,1277.9384558297425,None,1276.9476385302678,None,1277.4388661840767,None,1,[0.008653521428641398],[0.5175403627345077],1277.9384558297425,None,[2 0 3 0 0 2 3 0],space,0,2.9896176964830374,0.002335828599825618,None,1277.9551095769566,None,1,1280.9442277304606,None,None,1281.443801083824,None,,,,,,,,,,,,,,,,,,,,,,,,,,,,,,,,,,,,,,,,,,,,,,,22_SU,22,22,F,2022-12-13_16h27.04.500,dynamic target,2022.1.3,120.0991056243167,
