tar_letter,tar_pos,tar_ori,tar_pos_type,block,trials.thisRepN,trials.thisTrialN,trials.thisN,trials.thisIndex,instructions_key.keys,instructions_key.rt,instructions_key.started,instructions_key.stopped,instruction_text.started,instruction_text.stopped,fix_key.keys,fix_key.started,fix_key.stopped,fixcross.started,fixcross.stopped,roi.started,roi.stopped,roi.numLooks,roi.timesOn,roi.timesOff,RedFixCross.started,RedFixCross.stopped,distori,search_resp.keys,search_resp.corr,search_resp.rt,search_resp.started,search_resp.stopped,fixcross_shape.started,fixcross_shape.stopped,correct,feedback_text.started,feedback_text.stopped,break_key.keys,break_key.started,break_key.stopped,break_key.rt,fix_key.rt,text_q1.started,text_q1.stopped,key_resp1.keys,key_resp1.rt,key_resp1.started,key_resp1.stopped,text_q2.started,text_q2.stopped,key_resp_2.keys,key_resp_2.rt,key_resp_2.started,key_resp_2.stopped,image.started,image.stopped,text_q1_2.started,text_q1_2.stopped,slider.response,slider.rt,slider.started,slider.stopped,mouse.x,mouse.y,mouse.leftButton,mouse.midButton,mouse.rightButton,mouse.time,mouse.started,mouse.stopped,key_resp_3.keys,key_resp_3.rt,key_resp_3.started,key_resp_3.stopped,text_q4.started,text_q4.stopped,key_resp1_3.keys,key_resp1_3.rt,key_resp1_3.started,key_resp1_3.stopped,finish_text.started,finish_text.stopped,key_resp.keys,key_resp.rt,key_resp.started,key_resp.stopped,participant,group,age,gender,date,expName,psychopyVersion,frameRate,
,,,,,,,,,space,5.44655714719886,54.406264652512164,None,,,,,,,,,,,,,,,,,,,,,,,,,,,,,,,,,,,,,,,,,,,,,,,,,,,,,,,,,,,,,,,,,,,,,,,,,,,23_SN,23,25,F,2022-12-14_15h04.43.222,dynamic target,2022.1.3,120.1279848360174,
1,4,2,0,L,0,0,0,0,,,,,54.406264652512164,None,None,128.11780639024326,None,127.1697347009333,None,127.6182309803578,None,1,[0.00893374290342308],[0.5089824910696734],128.11780639024326,None,[0 0 3 2 1 0 0 1],space,0,4.144597214343094,0.006451819813946713,None,128.13442820004457,None,1,132.28087699234084,None,None,132.78045560934245,None,,,,,,,,,,,,,,,,,,,,,,,,,,,,,,,,,,,,,,,,,,,,,,,23_SN,23,25,F,2022-12-14_15h04.43.222,dynamic target,2022.1.3,120.1279848360174,
1,5,2,2,L,0,1,1,1,,,,,,,None,133.81291736608534,None,132.82207432427674,None,133.31334327111745,None,1,[0.008647026714584172],[0.5174993088664905],133.81291736608534,None,[2 0 2 2 0 2 2 0],space,0,2.2859733109362423,0.002642054401690075,None,133.82955460211554,None,1,136.11926174750636,None,None,136.61880348267167,None,,,,,,,,,,,,,,,,,,,,,,,,,,,,,,,,,,,,,,,,,,,,,,,23_SN,23,25,F,2022-12-14_15h04.43.222,dynamic target,2022.1.3,120.1279848360174,
1,4,4,1,L,0,2,2,2,,,,,,,None,137.6512620322983,None,136.66044272314957,None,137.1517023693533,None,1,[0.008657930909748757],[0.5175634511906537],137.6512620322983,None,[1 3 2 2 3 1 3 0],space,0,2.68730189089581,0.002485226419139508,None,137.66790407900282,None,1,140.35727659388874,None,None,140.85683179894207,None,,,,,,,,,,,,,,,,,,,,,,,,,,,,,,,,,,,,,,,,,,,,,,,23_SN,23,25,F,2022-12-14_15h04.43.222,dynamic target,2022.1.3,120.1279848360174,
1,5,1,2,L,0,3,3,3,,,,,,,None,141.88927110587144,None,140.9068255771366,None,141.38969989730822,None,1,[0.00862425618947782],[0.5174483157187524],141.88927110587144,None,[0 0 2 0 0 0 0 3],space,0,2.7365385010252794,0.002360790310376615,None,141.90593207456163,None,1,144.64527498776488,None,None,145.14482826854854,None,,,,,,,,,,,,,,,,,,,,,,,,,,,,,,,,,,,,,,,,,,,,,,,23_SN,23,25,F,2022-12-14_15h04.43.222,dynamic target,2022.1.3,120.1279848360174,
1,6,2,2,L,0,4,4,4,,,,,,,None,146.1772618026688,None,145.19483102666845,None,145.6776809727569,None,1,[0.008638046789315013],[0.5170766109505394],146.1772618026688,None,[0 3 0 3 0 2 3 2],space,0,4.6724904661215305,0.0028232564673089655,None,146.1939224506474,None,1,150.86489894697547,None,None,151.36447339472616,None,,,,,,,,,,,,,,,,,,,,,,,,,,,,,,,,,,,,,,,,,,,,,,,23_SN,23,25,F,2022-12-14_15h04.43.222,dynamic target,2022.1.3,120.1279848360174,
1,7,2,2,L,0,5,5,5,,,,,,,None,152.39691751232976,None,151.41448000138553,None,151.8973649050405,None,1,[0.008803213273836263],[0.517131773349206],152.39691751232976,None,[1 1 3 3 3 3 0 3],space,0,9.156546929326623,0.0029727080824386576,None,152.413559879746,None,1,161.5723474102216,None,None,162.07191640587476,None,,,,,,,,,,,,,,,,,,,,,,,,,,,,,,,,,,,,,,,,,,,,,,,23_SN,23,25,F,2022-12-14_15h04.43.222,dynamic target,2022.1.3,120.1279848360174,
1,8,3,2,L,0,6,6,6,,,,,,,None,163.10436148561325,None,162.1219082597995,None,162.60479733270563,None,1,[0.009230080440829624],[0.5178238690264152],163.10436148561325,None,[0 1 3 1 1 1 2 2],space,0,2.5604444093671646,0.002191454574699492,None,163.12100641872246,None,1,165.68549030071847,None,None,166.18505737210185,None,,,,,,,,,,,,,,,,,,,,,,,,,,,,,,,,,,,,,,,,,,,,,,,23_SN,23,25,F,2022-12-14_15h04.43.222,dynamic target,2022.1.3,120.1279848360174,
1,1,4,2,L,0,7,7,7,,,,,,,None,167.217490906222,None,166.23506269591473,None,166.71793060185394,None,1,[0.008779480613952728],[0.5172443431280271],167.217490906222,None,[3 0 3 1 1 1 1 0],space,0,2.399770773850719,0.0028145972535185138,None,167.23414770566114,None,1,169.6320860430793,None,None,170.13163836172808,None,,,,,,,,,,,,,,,,,,,,,,,,,,,,,,,,,,,,,,,,,,,,,,,23_SN,23,25,F,2022-12-14_15h04.43.222,dynamic target,2022.1.3,120.1279848360174,
1,2,4,2,L,0,8,8,8,,,,,,,None,171.15577540693494,None,170.16495994632578,171.16410204274064,170.65620227410204,None,2,"[0.008592826450694702, 0.7915284666840989]","[0.4998021209300987, 1.291876118080836]",171.15577540693494,None,[0 1 1 0 0 2 2 2],space,0,5.317812277782991,0.0024922820748543018,None,171.94676219169196,None,1,177.26718549254576,None,None,177.7667775794355,None,,,,,,,,,,,,,,,,,,,,,,,,,,,,,,,,,,,,,,,,,,,,,,,23_SN,23,25,F,2022-12-14_15h04.43.222,dynamic target,2022.1.3,120.1279848360174,
1,3,4,2,L,0,9,9,9,,,,,,,None,178.79919924722572,None,177.80839437010002,None,178.29963958428084,None,1,[0.00912713201068982],[0.5176667203323859],178.79919924722572,None,[0 0 2 1 2 2 3 1],space,0,5.312863697477155,0.0025041484047960694,None,178.81585476381838,None,1,184.12795207028978,None,None,184.62752106594283,None,,,,,,,,,,,,,,,,,,,,,,,,,,,,,,,,,,,,,,,,,,,,,,,23_SN,23,25,F,2022-12-14_15h04.43.222,dynamic target,2022.1.3,120.1279848360174,
1,4,1,2,L,0,10,10,10,,,,,,,None,185.65996486283484,None,184.68582576507367,None,185.16039301284843,None,1,[0.007877960248492855],[0.51648746370347],185.65996486283484,None,[3 0 2 0 1 1 2 0],space,0,2.004094094781067,0.0027401921576029054,None,185.67661877586943,None,1,187.68323249090952,None,None,188.18278994094422,None,,,,,,,,,,,,,,,,,,,,,,,,,,,,,,,,,,,,,,,,,,,,,,,23_SN,23,25,F,2022-12-14_15h04.43.222,dynamic target,2022.1.3,120.1279848360174,
1,5,4,2,L,0,11,11,11,,,,,,,None,189.2152203000193,None,188.22441923936185,None,188.71567631987273,None,1,[0.008592185027509913],[0.5086550445051898],189.2152203000193,None,[0 3 3 0 0 0 0 0],space,0,1.5284370689196294,0.0028085037326945894,None,189.22354401734924,None,1,190.7555815046892,None,None,191.25514055828197,None,,,,,,,,,,,,,,,,,,,,,,,,,,,,,,,,,,,,,,,,,,,,,,,23_SN,23,25,F,2022-12-14_15h04.43.222,dynamic target,2022.1.3,120.1279848360174,
1,6,1,2,L,0,12,12,12,,,,,,,None,192.28760808783397,None,191.30516352123402,192.3042510966734,191.7880468213309,None,2,"[0.008613351994426921, 0.7837720561399237]","[0.4749553088356606, 1.2917471920093249]",192.28760808783397,None,[3 3 3 3 1 1 2 2],space,0,2.48874676088883,0.002210055848649972,None,193.0785932690328,None,1,195.5680960569789,None,None,196.0677012930452,None,,,,,,,,,,,,,,,,,,,,,,,,,,,,,,,,,,,,,,,,,,,,,,,23_SN,23,25,F,2022-12-14_15h04.43.222,dynamic target,2022.1.3,120.1279848360174,
1,7,3,2,L,0,13,13,13,,,,,,,None,197.09180754993645,None,196.10931102805398,None,196.59224018991267,None,1,[0.008567169521143114],[0.5175653754603218],197.09180754993645,None,[0 0 2 0 3 3 2 3],space,0,1.9313865254094935,0.0024515516989822572,None,197.10848070566828,None,1,199.04011011954208,None,None,199.5396813601765,None,,,,,,,,,,,,,,,,,,,,,,,,,,,,,,,,,,,,,,,,,,,,,,,23_SN,23,25,F,2022-12-14_15h04.43.222,dynamic target,2022.1.3,120.1279848360174,
1,8,3,2,L,0,14,14,14,,,,,,,None,200.56381327399743,None,199.58136999024396,None,200.06424527255035,None,1,[0.009293902053400416],[0.5173950775897538],200.56381327399743,None,[0 2 2 0 1 2 2 3],space,0,2.0751948989334323,0.0025477651851133487,None,200.58047456339932,None,1,202.6536599930855,None,None,203.15327581263514,None,,,,,,,,,,,,,,,,,,,,,,,,,,,,,,,,,,,,,,,,,,,,,,,23_SN,23,25,F,2022-12-14_15h04.43.222,dynamic target,2022.1.3,120.1279848360174,
1,1,2,2,L,0,15,15,15,,,,,,,None,204.18569719178495,None,203.19488234052778,None,203.67779546680538,None,1,[0.008612069148057344],[0.5164996507451178],204.18569719178495,None,[0 1 2 1 3 2 0 2],space,0,3.646017004687451,0.002928770590415297,None,204.1940276440589,None,1,207.84090330352217,None,None,208.34045401861286,None,,,,,,,,,,,,,,,,,,,,,,,,,,,,,,,,,,,,,,,,,,,,,,,23_SN,23,25,F,2022-12-14_15h04.43.222,dynamic target,2022.1.3,120.1279848360174,
1,2,2,2,L,0,16,16,16,,,,,,,None,209.36456701044824,None,208.38210480470912,None,208.8650115167543,None,1,[0.00868422926259882],[0.5177395218703396],209.36456701044824,None,[3 3 1 3 0 3 1 3],space,0,4.953646798283785,0.0022523897827113615,None,209.38123439337085,None,1,214.3352940572779,None,None,214.83485792154502,None,,,,,,,,,,,,,,,,,,,,,,,,,,,,,,,,,,,,,,,,,,,,,,,23_SN,23,25,F,2022-12-14_15h04.43.222,dynamic target,2022.1.3,120.1279848360174,
1,3,2,2,L,0,17,17,17,,,,,,,None,215.85899079750084,None,214.88485939681846,215.8839867404988,215.3594343416721,None,2,"[0.00950428887642829, 0.817098804194643]","[0.4664811456844973, 1.3247480970575225]",215.85899079750084,None,[3 3 2 0 0 3 3 2],space,0,5.347969432891318,0.003036529695009449,None,216.68328284263396,None,1,222.02868605090464,None,None,222.5282842313152,None,,,,,,,,,,,,,,,,,,,,,,,,,,,,,,,,,,,,,,,,,,,,,,,23_SN,23,25,F,2022-12-14_15h04.43.222,dynamic target,2022.1.3,120.1279848360174,
1,2,1,1,L,0,18,18,18,,,,,,,None,223.5523661141234,None,222.56988819351488,None,223.0528077340249,None,1,[0.008513931392144514],[0.5177029607456234],223.5523661141234,None,[1 0 1 2 3 2 1 2],space,0,2.588481019240021,0.0020474550570952488,None,223.56903830772023,None,1,226.1584588010645,None,None,226.65802875885245,None,,,,,,,,,,,,,,,,,,,,,,,,,,,,,,,,,,,,,,,,,,,,,,,23_SN,23,25,F,2022-12-14_15h04.43.222,dynamic target,2022.1.3,120.1279848360174,
1,3,1,2,L,0,19,19,19,,,,,,,None,227.69048313922804,None,226.70804851468836,None,227.19092636268772,None,1,[0.008579035851084882],[0.5170830251829557],227.69048313922804,None,[0 3 1 1 0 1 3 0],space,0,3.5389006062532644,0.0029887436635362974,None,227.70713352443477,None,1,231.24576259771288,None,None,231.745333196924,None,,,,,,,,,,,,,,,,,,,,,,,,,,,,,,,,,,,,,,,,,,,,,,,23_SN,23,25,F,2022-12-14_15h04.43.222,dynamic target,2022.1.3,120.1279848360174,
1,5,1,0,L,0,20,20,20,,,,,,,None,232.7694452266245,None,231.78694100766313,None,232.26987498019605,None,1,[0.008644781733323725],[0.5178953877178856],232.7694452266245,None,[2 3 3 2 3 2 2 1],space,0,2.1073959491998266,0.002251748359412886,None,232.7860984982358,None,1,234.89261580736263,None,None,235.39218768942035,None,,,,,,,,,,,,,,,,,,,,,,,,,,,,,,,,,,,,,,,,,,,,,,,23_SN,23,25,F,2022-12-14_15h04.43.222,dynamic target,2022.1.3,120.1279848360174,
1,4,1,1,L,0,21,21,21,,,,,,,None,236.42463822125637,None,235.4421728084011,None,235.925070540521,None,1,[0.008581280832459015],[0.5174823111506157],236.42463822125637,None,[0 3 3 0 3 1 0 0],space,0,3.0278533737700855,0.0020416822478637187,None,236.4412751365751,None,1,239.47201438327477,None,None,239.97159043458353,None,,,,,,,,,,,,,,,,,,,,,,,,,,,,,,,,,,,,,,,,,,,,,,,23_SN,23,25,F,2022-12-14_15h04.43.222,dynamic target,2022.1.3,120.1279848360174,
1,5,1,2,L,0,22,22,22,,,,,,,None,241.00404032499637,None,240.0215588765601,None,240.5044569293915,None,1,[0.008673645779140315],[0.5170422948070836],241.00404032499637,None,[2 2 2 2 3 3 1 3],space,0,1.8251328412347902,0.0029999685701795897,None,241.0206685811013,None,1,242.84411939965355,None,None,243.343688074595,None,,,,,,,,,,,,,,,,,,,,,,,,,,,,,,,,,,,,,,,,,,,,,,,23_SN,23,25,F,2022-12-14_15h04.43.222,dynamic target,2022.1.3,120.1279848360174,
1,6,3,2,L,0,23,23,23,,,,,,,None,244.37611519448274,None,243.3853122416267,244.38444920665575,243.87656419075165,None,2,"[0.008514572815329302, 0.8086756341912178]","[0.3416236218220092, 1.3165228061239986]",244.37611519448274,None,[0 1 1 3 1 1 1 2],space,0,1.6212327313589867,0.00265424144311055,None,245.19212518272548,None,1,246.81569537014298,None,None,247.31528713632113,None,,,,,,,,,,,,,,,,,,,,,,,,,,,,,,,,,,,,,,,,,,,,,,,23_SN,23,25,F,2022-12-14_15h04.43.222,dynamic target,2022.1.3,120.1279848360174,
1,5,3,1,L,0,24,24,24,,,,,,,None,248.34772067044128,None,247.3568991163113,None,247.84814849974316,None,1,[0.008632915403268271],[0.5176843594714455],248.34772067044128,None,[3 0 0 3 2 0 1 0],space,0,3.920174767864978,0.002512807618586521,None,248.36437394205257,None,1,252.28598753201504,None,None,252.7855802603281,None,,,,,,,,,,,,,,,,,,,,,,,,,,,,,,,,,,,,,,,,,,,,,,,23_SN,23,25,F,2022-12-14_15h04.43.222,dynamic target,2022.1.3,120.1279848360174,
1,1,1,0,L,0,25,25,25,,,,,,,None,253.8096666330989,None,252.83556281361587,None,253.31011242225156,None,1,[0.008586732929870777],[0.5172026506173779],253.8096666330989,None,[0 3 3 2 3 0 1 2],space,0,2.682035806085537,0.002609341816310007,None,253.8263356195796,None,1,256.50735712457663,None,None,257.00693606229,None,,,,,,,,,,,,,,,,,,,,,,,,,,,,,,,,,,,,,,,,,,,,,,,23_SN,23,25,F,2022-12-14_15h04.43.222,dynamic target,2022.1.3,120.1279848360174,
1,2,4,2,L,0,26,26,26,,,,,,,None,258.03938373979264,None,257.0485397037779,None,257.5397961428655,None,1,[0.008630670422007825],[0.5088442643613007],258.03938373979264,None,[0 2 0 1 1 1 3 2],space,0,3.6605045107247633,0.002813955830447412,None,258.0477032878714,None,1,261.7112383124668,None,None,262.21080794954315,None,,,,,,,,,,,,,,,,,,,,,,,,,,,,,,,,,,,,,,,,,,,,,,,23_SN,23,25,F,2022-12-14_15h04.43.222,dynamic target,2022.1.3,120.1279848360174,
1,3,3,2,L,0,27,27,27,,,,,,,None,263.2349055472207,None,262.26077061871047,None,262.7353606370102,None,1,[0.008499499369236219],[0.5176596646767848],263.2349055472207,None,[0 3 3 1 0 2 3 0],space,0,3.032187149899187,0.002112880227741698,None,263.2515514424647,None,1,266.282288444183,None,None,266.7818478184875,None,,,,,,,,,,,,,,,,,,,,,,,,,,,,,,,,,,,,,,,,,,,,,,,23_SN,23,25,F,2022-12-14_15h04.43.222,dynamic target,2022.1.3,120.1279848360174,
1,3,3,0,L,0,28,28,28,,,,,,,None,267.8143063681141,None,266.8235091880672,267.82262851395717,267.3147434980531,None,1,[0.8003403391717256],[1.3073748278579842],267.8143063681141,None,[2 3 0 0 0 1 2 1],space,0,1.7901140186698967,0.00300574137941112,None,268.6219294267664,None,1,270.41205445939886,None,None,270.91164462201897,None,,,,,,,,,,,,,,,,,,,,,,,,,,,,,,,,,,,,,,,,,,,,,,,23_SN,23,25,F,2022-12-14_15h04.43.222,dynamic target,2022.1.3,120.1279848360174,
1,4,4,2,L,0,29,29,29,,,,,,,None,271.9357586080603,None,270.961630382423,None,271.4361915366769,None,1,[0.008596033566846017],[0.5090754974396532],271.9357586080603,None,[3 3 0 0 3 1 1 1],space,0,3.172045959815364,0.00276841478012102,None,271.9440701383487,None,1,275.11634744101,None,None,275.61591355025854,None,,,,,,,,,,,,,,,,,,,,,,,,,,,,,,,,,,,,,,,,,,,,,,,23_SN,23,25,F,2022-12-14_15h04.43.222,dynamic target,2022.1.3,120.1279848360174,
1,5,3,2,L,0,30,30,30,,,,,,,None,276.6400303906332,None,275.657586144745,None,276.14047265195813,None,1,[0.008583525813719461],[0.5170515954439452],276.6400303906332,None,[1 3 3 1 2 0 0 1],space,0,1.6446244748307208,0.003067318010607778,None,276.6566910386118,None,1,278.3052632625481,None,None,278.8048396345685,None,,,,,,,,,,,,,,,,,,,,,,,,,,,,,,,,,,,,,,,,,,,,,,,23_SN,23,25,F,2022-12-14_15h04.43.222,dynamic target,2022.1.3,120.1279848360174,
1,6,2,2,L,0,31,31,31,,,,,,,None,279.8373081583264,None,278.8464859307019,None,279.3377086950693,None,1,[0.008642857463655673],[0.5090119965389022],279.8373081583264,None,[3 2 2 1 0 0 0 3],space,0,3.221087577279718,0.002568290728959255,None,279.84560557730333,None,1,283.06783531843143,None,None,283.5674104076052,None,,,,,,,,,,,,,,,,,,,,,,,,,,,,,,,,,,,,,,,,,,,,,,,23_SN,23,25,F,2022-12-14_15h04.43.222,dynamic target,2022.1.3,120.1279848360174,
1,7,3,2,L,0,32,32,32,,,,,,,None,284.5915371900403,None,283.6174433126175,284.6165219081315,284.09197496140246,None,2,"[0.008568773079105085, 0.33327197050994073]","[0.24196408927832636, 0.8415646108837791]",284.5915371900403,None,[0 2 0 0 1 0 1 0],space,0,2.6140744479872637,0.003078222205658676,None,284.9329311823419,None,1,287.5473222824662,None,None,288.0468842224637,None,,,,,,,,,,,,,,,,,,,,,,,,,,,,,,,,,,,,,,,,,,,,,,,23_SN,23,25,F,2022-12-14_15h04.43.222,dynamic target,2022.1.3,120.1279848360174,
1,8,2,2,L,0,33,33,33,,,,,,,None,289.07934533778325,None,288.088512879458,None,288.5797805434522,None,1,[0.008637726077722618],[0.5175358699912067],289.07934533778325,None,[1 3 2 1 2 1 3 3],space,0,6.050216915786336,0.002600361890927161,None,289.09599668512465,None,1,295.149129620733,None,None,295.6486880329026,None,,,,,,,,,,,,,,,,,,,,,,,,,,,,,,,,,,,,,,,,,,,,,,,23_SN,23,25,F,2022-12-14_15h04.43.222,dynamic target,2022.1.3,120.1279848360174,
1,7,2,1,L,0,34,34,34,,,,,,,None,296.67283309589993,None,295.6819919783609,None,296.17324264463946,None,1,[0.008696095592540587],[0.517232156086493],296.67283309589993,None,[0 3 0 2 1 0 0 2],space,0,2.952295319514519,0.002422366941573273,None,296.68945365492596,None,1,299.64524131304483,None,None,300.14482442000923,None,,,,,,,,,,,,,,,,,,,,,,,,,,,,,,,,,,,,,,,,,,,,,,,23_SN,23,25,F,2022-12-14_15h04.43.222,dynamic target,2022.1.3,120.1279848360174,
1,8,1,2,L,0,35,35,35,,,,,,,None,301.17728168678923,None,300.18645884981265,None,300.67769059410557,None,1,[0.009260868756427953],[0.5174059817848047],301.17728168678923,None,[3 0 1 3 1 0 2 0],space,0,5.0876577525099265,0.002746606390019224,None,301.19393110986107,None,1,306.2812143809656,None,None,306.7807660581912,None,,,,,,,,,,,,,,,,,,,,,,,,,,,,,,,,,,,,,,,,,,,,,,,23_SN,23,25,F,2022-12-14_15h04.43.222,dynamic target,2022.1.3,120.1279848360174,
1,1,4,2,L,0,36,36,36,,,,,,,None,307.8132627725006,None,306.8308095466871,307.82988140725706,307.31367777333776,None,3,"[0.008692888476389271, 0.25004570140595206, 0.90870334367537]","[0.15046538463275283, 0.6671876092425464, 1.4168006706722736]",307.8132627725006,None,[2 0 3 0 2 0 1 1],space,0,2.2881730719419693,0.0020076868158867,None,308.72911092965956,None,1,311.0187699683074,None,None,311.5183768079317,None,,,,,,,,,,,,,,,,,,,,,,,,,,,,,,,,,,,,,,,,,,,,,,,23_SN,23,25,F,2022-12-14_15h04.43.222,dynamic target,2022.1.3,120.1279848360174,
1,6,1,0,L,0,37,37,37,,,,,,,None,312.5508283339737,None,311.56838084889796,None,312.042925005436,None,1,[0.00913322553128637],[0.5164172278584829],312.5508283339737,None,[2 0 1 3 1 1 2 0],space,0,2.795324299658091,0.00334826139010147,None,312.5591530134384,None,1,315.35674068477056,None,None,315.85631866034925,None,,,,,,,,,,,,,,,,,,,,,,,,,,,,,,,,,,,,,,,,,,,,,,,23_SN,23,25,F,2022-12-14_15h04.43.222,dynamic target,2022.1.3,120.1279848360174,
1,7,2,2,L,0,38,38,38,,,,,,,None,316.8887412902743,None,315.8979447516506,None,316.38918515515707,None,1,[0.00926535871917622],[0.5176792280856262],316.8887412902743,None,[2 3 3 2 3 2 2 0],space,0,3.215568451000422,0.002503506981611281,None,316.9054179738339,None,1,320.11931626848195,None,None,320.61888173630706,None,,,,,,,,,,,,,,,,,,,,,,,,,,,,,,,,,,,,,,,,,,,,,,,23_SN,23,25,F,2022-12-14_15h04.43.222,dynamic target,2022.1.3,120.1279848360174,
1,6,3,1,L,0,39,39,39,,,,,,,None,321.6513697914029,None,320.66884632974416,None,321.1517799815656,None,1,[0.009414810334419599],[0.5177100164012245],321.6513697914029,None,[2 2 2 2 2 2 2 3],space,0,2.676665810710233,0.0023546967895526905,None,321.6679807290802,None,1,324.34901762823506,None,None,324.8485789268091,None,,,,,,,,,,,,,,,,,,,,,,,,,,,,,,,,,,,,,,,,,,,,,,,23_SN,23,25,F,2022-12-14_15h04.43.222,dynamic target,2022.1.3,120.1279848360174,
1,7,2,2,L,0,40,40,40,,,,,,,None,325.88101983729666,None,324.8902043766873,325.88933909673506,325.3814486287333,None,2,"[0.009065876091199243, 0.7924040094085285]","[0.43307838897590045, 1.2997662653710904]",325.88101983729666,None,[1 3 2 3 3 3 0 3],space,0,2.8164563090509773,0.0025025448467204114,None,326.6803364649754,None,1,329.4946078755229,None,None,329.9941512142464,None,,,,,,,,,,,,,,,,,,,,,,,,,,,,,,,,,,,,,,,,,,,,,,,23_SN,23,25,F,2022-12-14_15h04.43.222,dynamic target,2022.1.3,120.1279848360174,
1,6,3,1,L,0,41,41,41,,,,,,,None,331.0265729141077,None,330.0357680049108,None,330.5186888282674,None,1,[0.008599882106409495],[0.5167558993300645],331.0265729141077,None,[3 2 0 0 2 3 2 3],space,0,2.8137209596389994,0.003126328948610535,None,331.03492421263695,None,1,333.849165476292,None,None,334.34873703763816,None,,,,,,,,,,,,,,,,,,,,,,,,,,,,,,,,,,,,,,,,,,,,,,,23_SN,23,25,F,2022-12-14_15h04.43.222,dynamic target,2022.1.3,120.1279848360174,
1,7,2,2,L,0,42,42,42,,,,,,,None,335.38118083453014,None,334.39872472231195,None,334.8816112295251,None,1,[0.008552416786415051],[0.5171324147725045],335.38118083453014,None,[2 2 2 3 0 3 3 1],space,0,1.9705685055215554,0.0030160041512772295,None,335.39784276535534,None,1,337.3711432022285,None,None,337.87071412215147,None,,,,,,,,,,,,,,,,,,,,,,,,,,,,,,,,,,,,,,,,,,,,,,,23_SN,23,25,F,2022-12-14_15h04.43.222,dynamic target,2022.1.3,120.1279848360174,
1,8,3,2,L,0,43,43,43,,,,,,,None,338.90312873428593,None,337.9123267435648,None,338.4035883140382,None,1,[0.008748050875055924],[0.5181022467131697],338.90312873428593,None,[1 2 1 1 3 2 3 0],space,0,2.015186868314572,0.0018531038147102663,None,338.91979675863195,None,1,340.9347387130356,None,None,341.4343061051307,None,,,,,,,,,,,,,,,,,,,,,,,,,,,,,,,,,,,,,,,,,,,,,,,23_SN,23,25,F,2022-12-14_15h04.43.222,dynamic target,2022.1.3,120.1279848360174,
1,1,4,2,L,0,44,44,44,,,,,,,None,None,None,341.48431880531075,None,341.9588632825605,None,1,[0.008741636642753292],[0.5089128966483258],None,None,[3 1 0 2 2 2 3 1],space,0,3.668884384659691,0.002573422114664936,None,342.466740280674,None,1,346.13859424399607,None,None,346.6381590703982,None,,,,,,,,,,,,,,,,,,,,,,,,,,,,,,,,,,,,,,,,,,,,,,,23_SN,23,25,F,2022-12-14_15h04.43.222,dynamic target,2022.1.3,120.1279848360174,
1,2,1,2,L,0,45,45,45,,,,,,,None,347.6622698172521,None,346.6798121014758,None,347.1627030986515,None,1,[0.008681984281338373],[0.5177023193223249],347.6622698172521,None,[0 0 1 1 1 1 1 0],space,0,2.0242877019721845,0.0023530932314770325,None,347.6789384830213,None,1,349.7022089975005,None,None,350.20177478603733,None,,,,,,,,,,,,,,,,,,,,,,,,,,,,,,,,,,,,,,,,,,,,,,,23_SN,23,25,F,2022-12-14_15h04.43.222,dynamic target,2022.1.3,120.1279848360174,
1,3,3,2,L,0,46,46,46,,,,,,,None,351.2342108858504,None,350.2433931802598,None,350.73465218504043,None,1,[0.008628746152226086],[0.5174961017501118],351.2342108858504,None,[3 2 2 3 1 3 2 1],space,0,2.916078318335053,0.0026199252997685107,None,351.2508561396712,None,1,354.16502216438016,None,None,354.6645776901451,None,,,,,,,,,,,,,,,,,,,,,,,,,,,,,,,,,,,,,,,,,,,,,,,23_SN,23,25,F,2022-12-14_15h04.43.222,dynamic target,2022.1.3,120.1279848360174,
1,2,4,1,L,0,47,47,47,,,,,,,None,355.6886977376362,None,354.7146134815621,None,355.18914096109575,None,1,[0.008582563679055966],[0.5173970018595355],355.6886977376362,None,[1 0 1 1 2 1 2 3],space,0,2.398253487173747,0.0025820813286827615,None,355.7053461985731,None,1,358.1033012129956,None,None,358.6028583423186,None,,,,,,,,,,,,,,,,,,,,,,,,,,,,,,,,,,,,,,,,,,,,,,,23_SN,23,25,F,2022-12-14_15h04.43.222,dynamic target,2022.1.3,120.1279848360174,
1,3,1,2,L,0,48,48,48,,,,,,,None,359.6353313239681,None,358.644510731973,None,359.13576139825136,None,1,[0.008660496602715284],[0.5177994949433469],359.6353313239681,None,[3 2 1 0 3 0 0 2],space,0,2.4344566977534896,0.0023832401236631995,None,359.6519679185751,None,1,362.09156348839315,None,None,362.59109207438206,None,,,,,,,,,,,,,,,,,,,,,,,,,,,,,,,,,,,,,,,,,,,,,,,23_SN,23,25,F,2022-12-14_15h04.43.222,dynamic target,2022.1.3,120.1279848360174,
1,4,1,2,L,0,49,49,49,,,,,,,None,363.61520153838956,None,362.63273901193884,None,363.11565759031396,None,1,[0.00866049660248791],[0.5175368321258702],363.61520153838956,None,[3 2 0 0 0 0 1 0],space,0,1.542365574602286,0.002469190838155555,None,363.63186892131216,None,1,365.17221380176056,None,None,365.67178953235754,None,,,,,,,,,,,,,,,,,,,,,,,,,,,,,,,,,,,,,,,,,,,,,,,23_SN,23,25,F,2022-12-14_15h04.43.222,dynamic target,2022.1.3,120.1279848360174,
1,5,4,2,L,0,50,50,50,,,,,,,None,366.70424102632865,None,365.72181570242583,None,366.2046544236075,None,1,[0.008582563679055966],[0.5170980986292761],366.70424102632865,None,[3 3 3 3 3 3 3 0],space,0,1.1094292608744354,0.0025330124506126594,None,366.72088499730285,None,1,367.82825379578253,None,None,368.32782760210995,None,,,,,,,,,,,,,,,,,,,,,,,,,,,,,,,,,,,,,,,,,,,,,,,23_SN,23,25,F,2022-12-14_15h04.43.222,dynamic target,2022.1.3,120.1279848360174,
1,6,3,2,L,0,51,51,51,,,,,,,None,369.35194348034975,None,368.3694681254342,None,368.85239375946503,None,1,[0.008632273980083482],[0.5169053509450805],369.35194348034975,None,[3 0 0 3 2 0 3 0],space,0,0.9426156013815898,0.003227994532608136,None,369.36862721956504,None,1,370.30945175631314,None,None,370.8090508988585,None,,,,,,,,,,,,,,,,,,,,,,,,,,,,,,,,,,,,,,,,,,,,,,,23_SN,23,25,F,2022-12-14_15h04.43.222,dynamic target,2022.1.3,120.1279848360174,
1,3,1,0,L,0,52,52,52,,,,,,,None,371.84983095290477,None,370.86732256469236,371.86646177470266,371.350250122993,None,2,"[0.008771783534939459, 0.8507125891496798]","[0.3083475462030947, 1.3585850973006472]",371.84983095290477,None,[0 0 1 2 0 3 2 3],space,0,2.690766538533012,0.0027636041058940464,None,372.7074064500239,None,1,375.39675715651947,None,None,375.8963168515357,None,,,,,,,,,,,,,,,,,,,,,,,,,,,,,,,,,,,,,,,,,,,,,,,23_SN,23,25,F,2022-12-14_15h04.43.222,dynamic target,2022.1.3,120.1279848360174,
1,4,2,2,L,0,53,53,53,,,,,,,None,376.9204311262174,None,375.9463147989811,None,376.42086120050067,None,1,[0.008568773079332459],[0.5178180962172974],376.9204311262174,None,[3 1 0 2 2 1 0 3],space,0,1.4361417166084038,0.0021475170826761314,None,376.9371049233723,None,1,378.3775118935905,None,None,378.8770969248247,None,,,,,,,,,,,,,,,,,,,,,,,,,,,,,,,,,,,,,,,,,,,,,,,23_SN,23,25,F,2022-12-14_15h04.43.222,dynamic target,2022.1.3,120.1279848360174,
1,5,4,2,L,0,54,54,54,,,,,,,None,379.90952728389976,None,378.9187313546281,None,379.4016454430407,None,1,[0.008588015776467728],[0.5163922123522298],379.90952728389976,None,[3 2 3 0 0 0 2 2],space,0,2.680519802254935,0.0028774567310847488,None,379.917862546848,None,1,382.59889912529115,None,None,383.0984700452139,None,,,,,,,,,,,,,,,,,,,,,,,,,,,,,,,,,,,,,,,,,,,,,,,23_SN,23,25,F,2022-12-14_15h04.43.222,dynamic target,2022.1.3,120.1279848360174,
1,6,3,2,L,0,55,55,55,,,,,,,None,384.1308987686598,None,383.14846061629237,None,383.63132884294305,None,1,[0.00862650117096564],[0.5173203517822458],384.1308987686598,None,[3 2 3 2 2 1 2 3],space,0,1.4105938289111464,0.0027748290126510256,None,384.1475507574246,None,1,385.5629999493276,None,None,386.06258594269667,None,,,,,,,,,,,,,,,,,,,,,,,,,,,,,,,,,,,,,,,,,,,,,,,23_SN,23,25,F,2022-12-14_15h04.43.222,dynamic target,2022.1.3,120.1279848360174,
1,7,4,2,L,0,56,56,56,,,,,,,None,387.09502396677954,None,386.10419856411,None,386.5954777737227,None,1,[0.008749654433131582],[0.5173155411077914],387.09502396677954,None,[3 3 3 0 2 1 3 2],space,0,4.349919038833036,0.0028498755318651092,None,387.11168365262324,None,1,391.4579434816326,None,None,391.95751376013214,None,,,,,,,,,,,,,,,,,,,,,,,,,,,,,,,,,,,,,,,,,,,,,,,23_SN,23,25,F,2022-12-14_15h04.43.222,dynamic target,2022.1.3,120.1279848360174,
1,8,1,2,L,0,57,57,57,,,,,,,None,392.9816091128282,None,391.99912926795014,None,392.48205778838565,None,1,[0.008659855179530496],[0.5170605753694417],392.9816091128282,None,[2 3 3 2 1 2 3 3],space,0,2.4952799773119523,0.0030625073361534305,None,392.99825789447686,None,1,395.4961219550837,None,None,395.9957057034713,None,,,,,,,,,,,,,,,,,,,,,,,,,,,,,,,,,,,,,,,,,,,,,,,23_SN,23,25,F,2022-12-14_15h04.43.222,dynamic target,2022.1.3,120.1279848360174,
1,1,3,2,L,0,58,58,58,,,,,,,None,397.02814404826586,None,396.04571231013074,None,396.5285731604142,None,1,[0.009515193071592876],[0.5173405566142719],397.02814404826586,None,[3 2 0 2 3 0 1 0],space,0,2.048097974109055,0.002618642453398934,None,397.04478866066347,None,1,399.093036196155,None,None,399.5926048710965,None,,,,,,,,,,,,,,,,,,,,,,,,,,,,,,,,,,,,,,,,,,,,,,,23_SN,23,25,F,2022-12-14_15h04.43.222,dynamic target,2022.1.3,120.1279848360174,
1,2,4,2,L,0,59,59,59,,,,,,,None,400.6250582893372,None,399.63425309149966,None,400.1254803458298,None,1,[0.008715979713088018],[0.5175955223526216],400.6250582893372,None,[1 1 1 0 2 1 0 3],space,0,4.866660185428259,0.0026106246630206442,None,400.6417000153301,None,1,405.51252186451484,None,space,406.02041169109316,None,30.339868578066557,,,,,,,,,,,,,,,,,,,,,,,,,,,,,,,,,,,,,,,,,,,,,,23_SN,23,25,F,2022-12-14_15h04.43.222,dynamic target,2022.1.3,120.1279848360174,
1,3,4,2,L,0,60,60,60,,,,,,,None,437.401738128699,None,436.41093549655466,None,436.9021556952291,None,1,[0.008636443231125668],[0.5174871218248427],437.401738128699,None,[3 0 3 3 3 0 1 2],space,0,2.9841355692077514,0.0024412889270024607,None,437.4183888346174,None,1,440.407502278656,None,None,440.9070510694772,None,,,,,,,,,,,,,,,,,,,,,,,,,,,,,,,,,,,,,,,,,,,,,,,23_SN,23,25,F,2022-12-14_15h04.43.222,dynamic target,2022.1.3,120.1279848360174,
1,4,1,2,L,0,61,61,61,,,,,,,None,441.9394913385413,None,440.95704805478795,None,441.43994642833104,None,1,[0.008628746152226086],[0.5174787833225309],441.9394913385413,None,[2 3 0 3 0 1 0 3],space,0,3.229995983964841,0.0027097245535969705,None,441.9561516658082,None,1,445.18671189128145,None,None,445.68626420993024,None,,,,,,,,,,,,,,,,,,,,,,,,,,,,,,,,,,,,,,,,,,,,,,,23_SN,23,25,F,2022-12-14_15h04.43.222,dynamic target,2022.1.3,120.1279848360174,
1,5,2,2,L,0,62,62,62,,,,,,,None,446.7187250366092,None,445.72789318763625,None,446.2108348572481,None,1,[0.008769217841972932],[0.516659685843706],446.7187250366092,None,[1 0 2 1 2 3 2 3],space,0,3.2753757161450494,0.003173794268604979,None,446.7270455468231,None,1,449.9992306128222,None,None,450.4987996084754,None,,,,,,,,,,,,,,,,,,,,,,,,,,,,,,,,,,,,,,,,,,,,,,,23_SN,23,25,F,2022-12-14_15h04.43.222,dynamic target,2022.1.3,120.1279848360174,
1,6,4,2,L,0,63,63,63,,,,,,,None,451.53124693319523,None,450.5404330761439,None,451.0316738003621,None,1,[0.008672683644363133],[0.5174649927230348],451.53124693319523,None,[1 0 1 3 3 2 3 3],space,0,3.493488161488017,0.0026632213687207695,None,451.5478851313603,None,1,455.0448932126517,None,None,455.5444602840351,None,,,,,,,,,,,,,,,,,,,,,,,,,,,,,,,,,,,,,,,,,,,,,,,23_SN,23,25,F,2022-12-14_15h04.43.222,dynamic target,2022.1.3,120.1279848360174,
1,7,4,2,L,0,64,64,64,,,,,,,None,456.568593159991,None,455.5944710599456,None,456.0690367041623,None,1,[0.008672683644363133],[0.5173142582614219],456.568593159991,None,[0 1 3 2 3 1 3 2],space,0,2.136141652466108,0.0028299914113176783,None,456.5852220575191,None,1,458.7250420613291,None,None,459.2246463352604,None,,,,,,,,,,,,,,,,,,,,,,,,,,,,,,,,,,,,,,,,,,,,,,,23_SN,23,25,F,2022-12-14_15h04.43.222,dynamic target,2022.1.3,120.1279848360174,
1,6,3,1,L,0,65,65,65,,,,,,,None,460.24873463230097,None,459.2662923106823,None,459.7491788178954,None,1,[0.008606296338712127],[0.5179810177205582],460.24873463230097,None,[2 3 3 3 0 3 2 1],space,0,2.0071485522556713,0.0017427790176043345,None,460.26540490162824,None,1,462.27198494194795,None,None,462.77160717573025,None,,,,,,,,,,,,,,,,,,,,,,,,,,,,,,,,,,,,,,,,,,,,,,,23_SN,23,25,F,2022-12-14_15h04.43.222,dynamic target,2022.1.3,120.1279848360174,
1,7,1,2,L,0,66,66,66,,,,,,,None,463.8040243535577,None,462.8216124995431,None,463.30444544791544,None,1,[0.008603730645972973],[0.5177953256923047],463.8040243535577,None,[1 0 3 2 1 0 3 2],space,0,3.0445172288649474,0.0023296812832995784,None,463.82068019086205,None,1,466.86804705224336,None,None,467.36761540647313,None,,,,,,,,,,,,,,,,,,,,,,,,,,,,,,,,,,,,,,,,,,,,,,,23_SN,23,25,F,2022-12-14_15h04.43.222,dynamic target,2022.1.3,120.1279848360174,
1,6,4,1,L,0,67,67,67,,,,,,,None,468.3917062692067,None,467.4093014708476,None,467.8921552654756,None,1,[0.008640933193873934],[0.5178392631844417],468.3917062692067,None,[1 3 1 1 3 0 3 2],space,0,1.6718451943410173,0.0022899130422047165,None,468.4083800663616,None,1,470.0819584960677,None,None,470.5815233224699,None,,,,,,,,,,,,,,,,,,,,,,,,,,,,,,,,,,,,,,,,,,,,,,,23_SN,23,25,F,2022-12-14_15h04.43.222,dynamic target,2022.1.3,120.1279848360174,
1,7,3,2,L,0,68,68,68,,,,,,,None,471.6056299000727,None,470.6231667321988,None,471.10604618375623,None,1,[0.008687115667271428],[0.5175493398792241],471.6056299000727,None,[3 2 2 3 0 0 0 3],space,0,1.5460146314213716,0.0023473204223591893,None,471.6222953587255,None,1,473.1709466701475,None,None,473.6705275321306,None,,,,,,,,,,,,,,,,,,,,,,,,,,,,,,,,,,,,,,,,,,,,,,,23_SN,23,25,F,2022-12-14_15h04.43.222,dynamic target,2022.1.3,120.1279848360174,
1,8,1,2,L,0,69,69,69,,,,,,,None,474.6946212812686,None,473.7205235553065,None,474.19506193903544,None,1,[0.008668193681614866],[0.5178941048714023],474.6946212812686,None,[1 2 3 0 1 3 3 2],space,0,2.3605487047860834,0.002237957759462006,None,474.71129347486544,None,1,477.0759429082002,None,None,477.5755186387974,None,,,,,,,,,,,,,,,,,,,,,,,,,,,,,,,,,,,,,,,,,,,,,,,23_SN,23,25,F,2022-12-14_15h04.43.222,dynamic target,2022.1.3,120.1279848360174,
1,7,1,1,L,0,70,70,70,,,,,,,None,478.59962265070726,None,477.61712965665265,None,478.10006555345535,None,1,[0.008607579185309078],[0.5170663481785596],478.59962265070726,None,[0 3 0 0 0 2 3 3],space,0,1.6085851478889026,0.003146213069157966,None,478.61627431876036,None,1,480.2232191364776,None,None,480.72278524572613,None,,,,,,,,,,,,,,,,,,,,,,,,,,,,,,,,,,,,,,,,,,,,,,,23_SN,23,25,F,2022-12-14_15h04.43.222,dynamic target,2022.1.3,120.1279848360174,
1,8,4,2,L,0,71,71,71,,,,,,,None,481.7552203834043,None,480.7644334661293,None,481.25568477383104,None,1,[0.008657930909748757],[0.5176240656867321],481.7552203834043,None,[3 1 2 0 0 3 2 3],space,0,2.196723436174011,0.002550330878193563,None,481.7718909734433,None,1,483.9699865236978,None,None,484.4695677063924,None,,,,,,,,,,,,,,,,,,,,,,,,,,,,,,,,,,,,,,,,,,,,,,,23_SN,23,25,F,2022-12-14_15h04.43.222,dynamic target,2022.1.3,120.1279848360174,
1,1,2,2,L,0,72,72,72,,,,,,,None,485.5020115032844,None,484.51120213619606,None,485.0024309940843,None,1,[0.00865664806337918],[0.5177372768889654],485.5020115032844,None,[2 1 3 1 2 3 3 2],space,0,2.2093360620775684,0.0023906164910840744,None,485.5186657370307,None,1,487.7334283494961,None,None,488.2329941380331,None,,,,,,,,,,,,,,,,,,,,,,,,,,,,,,,,,,,,,,,,,,,,,,,23_SN,23,25,F,2022-12-14_15h04.43.222,dynamic target,2022.1.3,120.1279848360174,
1,2,3,2,L,0,73,73,73,,,,,,,None,489.2654459527157,None,488.27462888854825,None,488.7658741027292,None,1,[0.008978001107152522],[0.5173306145538845],489.2654459527157,None,[2 0 3 0 2 2 2 1],space,0,2.3497429681532367,0.0027267222696991666,None,489.28210948709875,None,1,491.63005529709767,None,None,492.1296329519644,None,,,,,,,,,,,,,,,,,,,,,,,,,,,,,,,,,,,,,,,,,,,,,,,23_SN,23,25,F,2022-12-14_15h04.43.222,dynamic target,2022.1.3,120.1279848360174,
1,3,3,2,L,0,74,74,74,,,,,,,None,493.16208059739597,None,492.17127860667483,None,492.6625052195816,None,1,[0.008647668137882647],[0.517686283741341],493.16208059739597,None,[0 1 2 2 3 2 0 3],space,0,2.6925984433097483,0.0024284604623971973,None,493.1787329068725,None,1,495.87641121130855,None,None,496.37598020696174,None,,,,,,,,,,,,,,,,,,,,,,,,,,,,,,,,,,,,,,,,,,,,,,,23_SN,23,25,F,2022-12-14_15h04.43.222,dynamic target,2022.1.3,120.1279848360174,
1,4,3,2,L,0,75,75,75,,,,,,,None,497.4084207967376,None,496.42605865302403,497.4250872175253,496.9088595302344,None,2,"[0.008639650347504357, 0.8168723817905175]","[0.07518699091042436, 1.3252647634783443]",497.4084207967376,None,[2 2 1 1 1 1 2 2],space,0,2.4385974054872577,0.002511204060738237,None,498.23270578621486,None,1,500.67228948970296,None,None,501.18017646194795,None,,,,,,,,,,,,,,,,,,,,,,,,,,,,,,,,,,,,,,,,,,,,,,,23_SN,23,25,F,2022-12-14_15h04.43.222,dynamic target,2022.1.3,120.1279848360174,
1,5,3,2,L,0,76,76,76,,,,,,,None,502.2179123533627,None,501.2255266565878,None,501.705347160708,None,1,[0.008615917687393448],[0.5210749227244378],502.2179123533627,None,[1 1 0 0 0 1 1 0],space,0,0.8438412329109042,0.001629888527077128,None,502.22995664620316,None,1,503.07021179154003,None,None,503.5697657137469,None,,,,,,,,,,,,,,,,,,,,,,,,,,,,,,,,,,,,,,,,,,,,,,,23_SN,23,25,F,2022-12-14_15h04.43.222,dynamic target,2022.1.3,120.1279848360174,
1,6,4,2,L,0,77,77,77,,,,,,,None,504.6022262197144,None,503.61140046426226,None,504.1026415091919,None,1,[0.008653120235521783],[0.5090014130555574],504.6022262197144,None,[3 2 1 2 3 1 3 0],space,0,1.5319347498538036,0.001805959206649277,None,504.61053903284915,None,1,506.14258165157503,None,None,506.6421426294376,None,,,,,,,,,,,,,,,,,,,,,,,,,,,,,,,,,,,,,,,,,,,,,,,23_SN,23,25,F,2022-12-14_15h04.43.222,dynamic target,2022.1.3,120.1279848360174,
1,7,2,2,L,0,78,78,78,,,,,,,None,507.6746050276038,None,506.6837664757577,507.68291915565624,507.17503349832873,None,2,"[0.008699623420397984, 0.7514799237733314]","[0.2500444185595825, 1.258178627392681]",507.6746050276038,None,[0 3 0 0 1 2 2 3],space,0,2.4147765498670424,0.00293775051591183,None,508.4322769306359,None,1,510.8468653325492,None,None,511.346426951835,None,,,,,,,,,,,,,,,,,,,,,,,,,,,,,,,,,,,,,,,,,,,,,,,23_SN,23,25,F,2022-12-14_15h04.43.222,dynamic target,2022.1.3,120.1279848360174,
1,8,3,2,L,0,79,79,79,,,,,,,None,512.378874917978,None,511.404746724412,None,511.87930755795423,None,1,[0.009105644332294105],[0.5175916738132855],512.378874917978,None,[0 3 1 0 0 2 0 3],space,0,1.8904611569279268,0.0024566830848016252,None,512.3955304345707,None,1,514.2855856803544,None,None,514.7851396025615,None,,,,,,,,,,,,,,,,,,,,,,,,,,,,,,,,,,,,,,,,,,,,,,,23_SN,23,25,F,2022-12-14_15h04.43.222,dynamic target,2022.1.3,120.1279848360174,
1,1,3,2,L,0,80,80,80,,,,,,,None,515.8175952657834,None,514.8267762773464,None,515.3180195672574,None,1,[0.008631953268377401],[0.5176449119421704],515.8175952657834,None,[3 0 2 3 3 0 2 3],space,0,2.2440960703646624,0.002614473202129375,None,515.834274515036,None,1,518.0823064681761,None,None,518.5818770673873,None,,,,,,,,,,,,,,,,,,,,,,,,,,,,,,,,,,,,,,,,,,,,,,,23_SN,23,25,F,2022-12-14_15h04.43.222,dynamic target,2022.1.3,120.1279848360174,
1,2,2,2,L,0,81,81,81,,,,,,,None,519.6142980937543,None,518.6234909716472,None,519.1147400343675,None,1,[0.008750295856543744],[0.5177122613824849],519.6142980937543,None,[1 3 1 3 1 2 0 1],space,0,3.6625830427379924,0.002460531624365103,None,519.6309773430069,None,1,523.2944902385004,None,None,523.7940521784979,None,,,,,,,,,,,,,,,,,,,,,,,,,,,,,,,,,,,,,,,,,,,,,,,23_SN,23,25,F,2022-12-14_15h04.43.222,dynamic target,2022.1.3,120.1279848360174,
1,3,2,2,L,0,82,82,82,,,,,,,None,524.8265027103339,None,523.8440645579665,None,524.3269180318825,None,1,[0.009319879694658084],[0.5175910323901007],524.8265027103339,None,[3 0 1 3 2 1 3 3],space,0,2.9305074548575476,0.002636602303937252,None,524.8431495677128,None,1,527.7739679018982,None,None,528.2735381803977,None,,,,,,,,,,,,,,,,,,,,,,,,,,,,,,,,,,,,,,,,,,,,,,,23_SN,23,25,F,2022-12-14_15h04.43.222,dynamic target,2022.1.3,120.1279848360174,
1,4,1,2,L,0,83,83,83,,,,,,,None,529.2976512043042,None,528.3151556124856,None,528.7980854157674,None,1,[0.00862361476629303],[0.5087413159310472],529.2976512043042,None,[3 1 3 3 1 0 2 1],space,0,2.86760403972778,0.002847309838898582,None,529.3059871086757,None,1,532.1785145022588,None,None,532.6780639345029,None,,,,,,,,,,,,,,,,,,,,,,,,,,,,,,,,,,,,,,,,,,,,,,,23_SN,23,25,F,2022-12-14_15h04.43.222,dynamic target,2022.1.3,120.1279848360174,
1,5,1,2,L,0,84,84,84,,,,,,,None,533.710493299372,None,532.7280545055814,533.7271658136808,533.210946464892,None,2,"[0.008963569084016854, 0.21675583518754138]","[0.06679717491533665, 0.7170534555714312]",533.710493299372,None,[2 1 3 2 2 2 3 1],space,0,1.5105589996290973,0.0029371090927270416,None,533.9269835853379,None,1,535.4423443891183,None,None,535.9419069705389,None,,,,,,,,,,,,,,,,,,,,,,,,,,,,,,,,,,,,,,,,,,,,,,,23_SN,23,25,F,2022-12-14_15h04.43.222,dynamic target,2022.1.3,120.1279848360174,
1,6,4,2,L,0,85,85,85,,,,,,,None,536.974381876458,None,535.991939875551,None,536.4747968772951,None,1,[0.009500119625499792],[0.5175236829495589],536.974381876458,None,[0 0 3 1 3 3 1 1],space,0,2.2377777307273163,0.002400879262950184,None,536.9910303373952,None,1,539.2307635566406,None,None,539.7303450600468,None,,,,,,,,,,,,,,,,,,,,,,,,,,,,,,,,,,,,,,,,,,,,,,,23_SN,23,25,F,2022-12-14_15h04.43.222,dynamic target,2022.1.3,120.1279848360174,
1,2,2,0,L,0,86,86,86,,,,,,,None,540.7627862912459,None,539.7719580021719,None,540.2632096305852,None,1,[0.008605334203821258],[0.5179434944609511],540.7627862912459,None,[2 2 2 2 2 3 1 3],space,0,2.3049292919835125,0.0021584212777270295,None,540.7794206408716,None,1,543.0857736815065,None,None,543.5853503742385,None,,,,,,,,,,,,,,,,,,,,,,,,,,,,,,,,,,,,,,,,,,,,,,,23_SN,23,25,F,2022-12-14_15h04.43.222,dynamic target,2022.1.3,120.1279848360174,
1,3,4,2,L,0,87,87,87,,,,,,,None,544.6094627246505,None,543.6269738998469,None,544.1098934403569,None,1,[0.008738429526601976],[0.516914010158871],544.6094627246505,None,[0 1 3 2 2 2 0 3],space,0,3.3069093655288953,0.0033469785437318933,None,544.6261304282848,None,1,547.9316111333114,None,None,548.4311871846203,None,,,,,,,,,,,,,,,,,,,,,,,,,,,,,,,,,,,,,,,,,,,,,,,23_SN,23,25,F,2022-12-14_15h04.43.222,dynamic target,2022.1.3,120.1279848360174,
1,4,2,2,L,0,88,88,88,,,,,,,None,549.4636265236206,None,548.4728081445357,None,548.9557382685293,None,1,[0.00867204222095097],[0.516432622016282],549.4636265236206,None,[1 1 3 3 0 0 1 3],space,0,3.1175201736390363,0.0030679594337925664,None,549.4719560137598,None,1,552.5859391687027,None,None,553.0855161821462,None,,,,,,,,,,,,,,,,,,,,,,,,,,,,,,,,,,,,,,,,,,,,,,,23_SN,23,25,F,2022-12-14_15h04.43.222,dynamic target,2022.1.3,120.1279848360174,
1,5,4,2,L,0,89,89,89,,,,,,,None,554.1096250047306,None,553.118806337005,None,553.6100537961672,None,1,[0.008688398513641005],[0.5178854456576119],554.1096250047306,None,[2 2 3 0 0 3 1 2],space,0,1.293598550427646,0.0021725325889292435,None,554.1262991225972,None,1,555.4251420592125,None,None,555.9247524266646,None,,,,,,,,,,,,,,,,,,,,,,,,,,,,,,,,,,,,,,,,,,,,,,,23_SN,23,25,F,2022-12-14_15h04.43.222,dynamic target,2022.1.3,120.1279848360174,
1,6,3,2,L,0,90,90,90,,,,,,,None,556.957174735878,None,555.9747160579668,None,556.4575961509474,None,1,[0.00933142531289377],[0.5178748621740397],556.957174735878,None,[3 1 0 3 1 0 2 0],space,0,1.3105051842193234,0.002290554465389505,None,556.9738312146055,None,1,558.2893610975523,None,None,558.7889576744046,None,,,,,,,,,,,,,,,,,,,,,,,,,,,,,,,,,,,,,,,,,,,,,,,23_SN,23,25,F,2022-12-14_15h04.43.222,dynamic target,2022.1.3,120.1279848360174,
1,7,2,2,L,0,91,91,91,,,,,,,None,559.8213860771389,None,558.8305763893388,None,559.3218126235943,None,1,[0.008579035850971195],[0.517749784642092],559.8213860771389,None,[2 0 1 2 0 0 3 1],space,0,2.9897284591596645,0.00244225106189333,None,559.8380290859784,None,1,562.8271204009152,None,None,563.3266986972053,None,,,,,,,,,,,,,,,,,,,,,,,,,,,,,,,,,,,,,,,,,,,,,,,23_SN,23,25,F,2022-12-14_15h04.43.222,dynamic target,2022.1.3,120.1279848360174,
1,8,4,2,L,0,92,92,92,,,,,,,None,564.3591402491161,None,563.3767184530411,None,563.8595680784179,None,1,[0.00927594220274841],[0.517384494106409],564.3591402491161,None,[2 0 3 3 2 2 3 1],space,0,2.1481311356905053,0.0028559690526890336,None,564.3757855029369,None,1,566.5239436881709,None,None,567.0234895925871,None,,,,,,,,,,,,,,,,,,,,,,,,,,,,,,,,,,,,,,,,,,,,,,,23_SN,23,25,F,2022-12-14_15h04.43.222,dynamic target,2022.1.3,120.1279848360174,
1,1,2,2,L,0,93,93,93,,,,,,,None,568.0559558392927,None,567.0735234597344,None,567.5563788579202,None,1,[0.009247398868410528],[0.5174460707376056],568.0559558392927,None,[0 3 2 1 2 3 1 1],space,0,6.241945378236892,0.0022911958885742933,None,568.0726059037879,None,1,574.3172335030754,None,None,574.8167983294773,None,,,,,,,,,,,,,,,,,,,,,,,,,,,,,,,,,,,,,,,,,,,,,,,23_SN,23,25,F,2022-12-14_15h04.43.222,dynamic target,2022.1.3,120.1279848360174,
1,2,4,2,L,0,94,94,94,,,,,,,None,575.8492498234482,None,574.866786976286,None,575.3496561650716,None,1,[0.008614634841023872],[0.517647477635137],575.8492498234482,None,[2 3 1 1 2 2 3 2],space,0,5.632656479284947,0.002389654355965831,None,575.865895077269,None,1,581.5027145031568,None,None,582.0022838195214,None,,,,,,,,,,,,,,,,,,,,,,,,,,,,,,,,,,,,,,,,,,,,,,,23_SN,23,25,F,2022-12-14_15h04.43.222,dynamic target,2022.1.3,120.1279848360174,
1,4,4,0,L,0,95,95,95,,,,,,,None,583.0264083569753,None,582.0439169664787,None,582.5268406762398,None,1,[0.008591543604325125],[0.5169245936422158],583.0264083569753,None,[1 0 0 0 3 0 0 0],space,0,2.0722600668933637,0.0031487787621244934,None,583.0430744570513,None,1,585.1162781672999,None,None,585.6158324102184,None,,,,,,,,,,,,,,,,,,,,,,,,,,,,,,,,,,,,,,,,,,,,,,,23_SN,23,25,F,2022-12-14_15h04.43.222,dynamic target,2022.1.3,120.1279848360174,
1,5,3,2,L,0,96,96,96,,,,,,,None,586.6399588719419,None,585.6658351683384,None,586.1403960018806,None,1,[0.008612710571242133],[0.5175637719023598],586.6399588719419,None,[2 3 3 2 1 3 1 3],space,0,1.3702098216450622,0.00253205031572179,None,586.6565996357999,None,1,588.0304509269529,None,None,588.5299981142157,None,,,,,,,,,,,,,,,,,,,,,,,,,,,,,,,,,,,,,,,,,,,,,,,23_SN,23,25,F,2022-12-14_15h04.43.222,dynamic target,2022.1.3,120.1279848360174,
1,6,4,2,L,0,97,97,97,,,,,,,None,589.5541056860245,None,588.5800095315494,None,589.054569402957,None,1,[0.008694812745943636],[0.5088772976582732],589.5541056860245,None,[2 1 2 0 1 0 2 3],space,0,3.1515447901800826,0.0027382678877074795,None,589.5624451182239,None,1,592.718051510135,None,None,593.217633013541,None,,,,,,,,,,,,,,,,,,,,,,,,,,,,,,,,,,,,,,,,,,,,,,,23_SN,23,25,F,2022-12-14_15h04.43.222,dynamic target,2022.1.3,120.1279848360174,
1,8,1,0,L,0,98,98,98,,,,,,,None,594.2500633726163,None,593.259248521359,None,593.7505123368139,None,1,[0.008654082370412652],[0.5088859568720636],594.2500633726163,None,[0 2 3 3 3 0 3 1],space,0,2.231686454917167,0.0027065174374456547,None,594.2583938248902,None,1,596.4898161231995,None,None,596.9893892881037,None,,,,,,,,,,,,,,,,,,,,,,,,,,,,,,,,,,,,,,,,,,,,,,,23_SN,23,25,F,2022-12-14_15h04.43.222,dynamic target,2022.1.3,120.1279848360174,
1,1,3,2,L,0,99,99,99,,,,,,,None,598.0135042042086,None,597.0394003847257,None,597.5139163186411,None,1,[0.008603089222560811],[0.5176247071101443],598.0135042042086,None,[1 1 0 0 0 2 3 3],space,0,2.395701264097056,0.002613511067465879,None,598.0301648521872,None,1,600.4280935682568,None,None,600.9276612810634,None,,,,,,,,,,,,,,,,,,,,,,,,,,,,,,,,,,,,,,,,,,,,,,,23_SN,23,25,F,2022-12-14_15h04.43.222,dynamic target,2022.1.3,120.1279848360174,
1,2,1,2,L,0,100,100,100,,,,,,,None,601.9601233585179,None,600.9692998801181,None,601.4605540742243,None,1,[0.008644781733210039],[0.517608992240639],601.9601233585179,None,[0 0 1 0 2 1 3 1],space,0,2.1772427709157682,0.002449306717608124,None,601.9767673294921,None,1,604.1581910068614,None,None,604.6577753966722,None,,,,,,,,,,,,,,,,,,,,,,,,,,,,,,,,,,,,,,,,,,,,,,,23_SN,23,25,F,2022-12-14_15h04.43.222,dynamic target,2022.1.3,120.1279848360174,
1,3,2,2,L,0,101,101,101,,,,,,,None,605.6902297770478,None,604.6994152785733,None,605.1906604927542,None,1,[0.008675890760514449],[0.5177205998845693],605.6902297770478,None,[1 1 3 3 3 0 0 3],space,0,2.717830430060644,0.0022921580236925365,None,605.7068824072358,None,1,608.429540619089,None,None,608.9290967862771,None,,,,,,,,,,,,,,,,,,,,,,,,,,,,,,,,,,,,,,,,,,,,,,,23_SN,23,25,F,2022-12-14_15h04.43.222,dynamic target,2022.1.3,120.1279848360174,
1,4,3,2,L,0,102,102,102,,,,,,,None,609.9615591844433,None,608.9791191078059,609.9781948169154,609.4619828444941,None,2,"[0.009110775717999786, 0.20885093516312736]","[0.12542165560330432, 0.7171246535513092]",609.9615591844433,None,[2 0 2 3 2 3 0 2],space,0,1.5917583712908936,0.0027013860515126,None,610.1780382455022,None,1,611.7683567313841,None,None,612.2679064843401,None,,,,,,,,,,,,,,,,,,,,,,,,,,,,,,,,,,,,,,,,,,,,,,,23_SN,23,25,F,2022-12-14_15h04.43.222,dynamic target,2022.1.3,120.1279848360174,
1,5,3,2,L,0,103,103,103,,,,,,,None,613.300347074116,None,612.3095232750045,None,612.8007742619945,None,1,[0.00862361476629303],[0.5173902669155268],613.300347074116,None,[0 0 0 2 1 2 0 3],space,0,1.3798805598527224,0.0026000411794484535,None,613.3169958557644,None,1,614.6991401080029,None,None,615.1986908230936,None,,,,,,,,,,,,,,,,,,,,,,,,,,,,,,,,,,,,,,,,,,,,,,,23_SN,23,25,F,2022-12-14_15h04.43.222,dynamic target,2022.1.3,120.1279848360174,
1,6,2,2,L,0,104,104,104,,,,,,,None,616.2311564283759,None,615.2487214831244,None,615.7315913133334,None,1,[0.007888223020245277],[0.516746919404568],616.2311564283759,None,[2 3 2 1 2 0 2 1],space,0,1.5852713373411689,0.0026382058622402837,None,616.2478103414103,None,1,617.8297839109243,None,None,618.3293477751915,None,,,,,,,,,,,,,,,,,,,,,,,,,,,,,,,,,,,,,,,,,,,,,,,23_SN,23,25,F,2022-12-14_15h04.43.222,dynamic target,2022.1.3,120.1279848360174,
1,7,4,2,L,0,105,105,105,,,,,,,None,619.3617864406976,None,618.3709870156695,619.3701172457543,618.8622184392505,None,2,"[0.008893333239257117, 0.7749236225274672]","[0.10835466600133259, 1.283624528794462]",619.3617864406976,None,[3 3 3 2 0 3 1 1],space,0,4.279588904704838,0.002348603268728766,None,620.1444401754165,None,1,624.4240955771943,None,None,624.9236828534099,None,,,,,,,,,,,,,,,,,,,,,,,,,,,,,,,,,,,,,,,,,,,,,,,23_SN,23,25,F,2022-12-14_15h04.43.222,dynamic target,2022.1.3,120.1279848360174,
1,8,3,2,L,0,106,106,106,,,,,,,None,625.9561096525861,None,624.9736519368096,None,625.4565471032365,None,1,[0.008572300906962482],[0.5174454293141935],625.9561096525861,None,[1 1 1 0 3 2 3 1],space,0,1.8754059913220544,0.0027462856785405165,None,625.9727584342345,None,1,627.8461366757472,None,None,628.3457213862696,None,,,,,,,,,,,,,,,,,,,,,,,,,,,,,,,,,,,,,,,,,,,,,,,23_SN,23,25,F,2022-12-14_15h04.43.222,dynamic target,2022.1.3,120.1279848360174,
1,1,1,2,L,0,107,107,107,,,,,,,None,629.3781860294171,None,628.3873458740129,None,628.87859429531,None,1,[0.008687757090456216],[0.5176016158734456],629.3781860294171,None,[1 3 2 0 3 1 0 2],space,0,4.676912117234565,0.0027526999108431482,None,629.394830321103,None,1,634.0741302461206,None,None,634.573701486755,None,,,,,,,,,,,,,,,,,,,,,,,,,,,,,,,,,,,,,,,,,,,,,,,23_SN,23,25,F,2022-12-14_15h04.43.222,dynamic target,2022.1.3,120.1279848360174,
1,8,4,1,L,0,108,108,108,,,,,,,None,635.606145283647,None,634.6320295978342,635.6311232667942,635.1065634916004,None,4,"[0.00902899425477699, 0.5923562875193511, 1.0001776742378752, 1.0248128166626884]","[0.3499550683020516, 0.9172336313599772, 1.0165365325813127, 1.5335772238304344]",635.606145283647,None,[3 1 2 0 0 1 3 0],space,0,3.4967546093436113,0.002427819039212409,None,636.6385903954567,None,1,640.135595269632,None,None,640.6351501539737,None,,,,,,,,,,,,,,,,,,,,,,,,,,,,,,,,,,,,,,,,,,,,,,,23_SN,23,25,F,2022-12-14_15h04.43.222,dynamic target,2022.1.3,120.1279848360174,
1,1,2,2,L,0,109,109,109,,,,,,,None,641.6675939508657,None,640.6851753619071,641.6842347147237,641.168025628707,None,2,"[0.008589298623064678, 0.3082263172107105]","[0.21671125627244692, 0.8086076433276048]",641.6675939508657,None,[0 0 1 2 3 2 2 2],space,0,2.0644472111038112,0.002955389654971441,None,641.975670175038,None,1,644.0405623229271,None,None,644.5401213765199,None,,,,,,,,,,,,,,,,,,,,,,,,,,,,,,,,,,,,,,,,,,,,,,,23_SN,23,25,F,2022-12-14_15h04.43.222,dynamic target,2022.1.3,120.1279848360174,
1,2,1,2,L,0,110,110,110,,,,,,,None,645.5725661355468,None,644.5901481880114,None,645.0730318088199,None,1,[0.016504140707638726],[0.5170217692634651],645.5725661355468,None,[2 3 2 0 2 1 1 0],space,0,3.6657600120516918,0.002833198527468994,None,645.589212030791,None,1,649.2527242848612,None,None,649.7522926390911,None,,,,,,,,,,,,,,,,,,,,,,,,,,,,,,,,,,,,,,,,,,,,,,,23_SN,23,25,F,2022-12-14_15h04.43.222,dynamic target,2022.1.3,120.1279848360174,
1,3,3,2,L,0,111,111,111,,,,,,,None,650.7847454159084,None,649.8023220162754,None,650.2851754901917,None,1,[0.009016807213129141],[0.5174489571420509],650.7847454159084,None,[0 1 1 0 3 1 0 1],space,0,4.06937462444273,0.0027472478129766387,None,650.801406063887,None,1,654.8728930048305,None,None,655.3724639247534,None,,,,,,,,,,,,,,,,,,,,,,,,,,,,,,,,,,,,,,,,,,,,,,,23_SN,23,25,F,2022-12-14_15h04.43.222,dynamic target,2022.1.3,120.1279848360174,
1,4,2,2,L,0,112,112,112,,,,,,,None,656.4049013394842,None,655.4224878498403,None,655.9053445308728,None,1,[0.008681022146447503],[0.5089670969121016],656.4049013394842,None,[1 0 3 0 2 3 3 1],space,0,4.312890316541711,0.002585929868018866,None,656.4132330746047,None,1,660.7261927746238,None,None,661.225763373835,None,,,,,,,,,,,,,,,,,,,,,,,,,,,,,,,,,,,,,,,,,,,,,,,23_SN,23,25,F,2022-12-14_15h04.43.222,dynamic target,2022.1.3,120.1279848360174,
1,5,1,2,L,0,113,113,113,,,,,,,None,662.2582026807643,None,661.2673868994434,662.2665299579933,661.7586192851595,None,4,"[0.008688077802162297, 0.4665090475955367, 0.6754154658690368, 1.016699454084801]","[0.35901677514220864, 0.5601202796863163, 0.8919346158804728, 1.5242227072808419]",662.2582026807643,None,[0 0 0 0 3 2 3 0],space,0,1.4126194435069692,0.0031378745670735952,None,663.2823227603265,None,1,664.6977552752251,None,None,665.1973387029011,None,,,,,,,,,,,,,,,,,,,,,,,,,,,,,,,,,,,,,,,,,,,,,,,23_SN,23,25,F,2022-12-14_15h04.43.222,dynamic target,2022.1.3,120.1279848360174,
1,6,2,2,L,0,114,114,114,,,,,,,None,666.2297975732395,None,665.2389708877233,None,665.7302148190577,None,1,[0.009525135131980278],[0.5175195136985167],666.2297975732395,None,[3 3 2 3 2 2 3 2],space,0,1.7752807855055153,0.0025625179198414116,None,666.2464283950371,None,1,668.0198947039607,None,None,668.5194672274417,None,,,,,,,,,,,,,,,,,,,,,,,,,,,,,,,,,,,,,,,,,,,,,,,23_SN,23,25,F,2022-12-14_15h04.43.222,dynamic target,2022.1.3,120.1279848360174,
1,7,2,2,L,0,115,115,115,,,,,,,None,669.5519257770682,None,668.5694440079203,None,669.0523670762582,None,1,[0.009678435286332387],[0.5175666583065777],669.5519257770682,None,[0 3 3 2 1 1 3 1],space,0,2.4213504966661503,0.002447061736120304,None,669.5685703894658,None,1,671.9914915207055,None,None,672.4910601956469,None,,,,,,,,,,,,,,,,,,,,,,,,,,,,,,,,,,,,,,,,,,,,,,,23_SN,23,25,F,2022-12-14_15h04.43.222,dynamic target,2022.1.3,120.1279848360174,
1,8,2,2,L,0,116,116,116,,,,,,,None,673.5234914847858,None,672.5410283169119,673.5401524534759,673.023933425399,None,4,"[0.009309296211085893, 0.5672381533936459, 0.9749854557278468, 1.6078854649003915]","[0.4415355544108479, 0.8251624564713893, 1.450128060150064, 2.115572601734584]",673.5234914847858,None,[2 2 2 0 1 2 1 0],space,0,3.0267645578181828,0.0030243426531342266,None,675.1387985372985,None,1,678.1695076371059,None,None,678.6690814434332,None,,,,,,,,,,,,,,,,,,,,,,,,,,,,,,,,,,,,,,,,,,,,,,,23_SN,23,25,F,2022-12-14_15h04.43.222,dynamic target,2022.1.3,120.1279848360174,
1,1,1,2,L,0,117,117,117,,,,,,,None,679.7015384215729,None,678.7274204587075,None,679.1936245095519,None,1,[0.008714696866718441],[0.5165455125068092],679.7015384215729,None,[2 2 0 2 1 3 0 1],space,0,3.031917752137929,0.0029329398414574825,None,679.7098432169173,None,1,682.7405641830546,None,None,683.2401463278841,None,,,,,,,,,,,,,,,,,,,,,,,,,,,,,,,,,,,,,,,,,,,,,,,23_SN,23,25,F,2022-12-14_15h04.43.222,dynamic target,2022.1.3,120.1279848360174,
1,5,4,0,L,0,118,118,118,,,,,,,None,684.2726013496829,None,683.29015421739,None,683.7730125019805,None,1,[0.008768576418788143],[0.5171247176936049],684.2726013496829,None,[1 1 3 0 0 3 3 3],space,0,1.5557896009057686,0.0029175456838856917,None,684.289236982155,None,1,685.846262715414,None,None,686.3457906599797,None,,,,,,,,,,,,,,,,,,,,,,,,,,,,,,,,,,,,,,,,,,,,,,,23_SN,23,25,F,2022-12-14_15h04.43.222,dynamic target,2022.1.3,120.1279848360174,
1,6,2,2,L,0,119,119,119,,,,,,,None,687.3782466439134,None,686.404124543868,None,686.8786642104433,None,1,[0.008653761658706571],[0.5176269520914047],687.3782466439134,None,[0 2 0 3 0 3 2 1],space,0,1.378017225337203,0.002649751480703344,None,687.3949034433524,None,1,688.777044167763,None,space,689.284939446439,None,149.75722856980508,,,,,,,,,,,,,,,,,,,,,,,,,,,,,,,,,,,,,,,,,,,,,,23_SN,23,25,F,2022-12-14_15h04.43.222,dynamic target,2022.1.3,120.1279848360174,
1,7,1,2,L,0,120,120,120,,,,,,,None,840.0801326848118,None,839.0893031128912,None,839.5805544205928,None,1,[0.009341046661575092],[0.5177353526191837],840.0801326848118,None,[3 1 1 2 1 0 2 1],space,0,7.386548795868407,0.0019961411976510135,None,840.0967830700185,None,1,847.4820917838174,None,None,847.9816623830284,None,,,,,,,,,,,,,,,,,,,,,,,,,,,,,,,,,,,,,,,,,,,,,,,23_SN,23,25,F,2022-12-14_15h04.43.222,dynamic target,2022.1.3,120.1279848360174,
1,8,4,2,L,0,121,121,121,,,,,,,None,849.0057753748638,None,848.0316850252689,849.030760092955,848.5062275782489,None,2,"[0.009245474598628789, 0.20921398071754993]","[0.15003049967504012, 0.7170890545614839]",849.0057753748638,None,[1 1 2 3 2 0 2 1],space,0,13.045566597287348,0.0028014480772071693,None,849.2222618122901,None,1,862.2693589551986,None,None,862.7689314786794,None,,,,,,,,,,,,,,,,,,,,,,,,,,,,,,,,,,,,,,,,,,,,,,,23_SN,23,25,F,2022-12-14_15h04.43.222,dynamic target,2022.1.3,120.1279848360174,
1,1,3,2,L,0,122,122,122,,,,,,,c,863.801369823474,None,862.8105633427901,863.809695176433,863.3018072741245,None,1,[170.30172228554488],[170.30173126547015],863.801369823474,None,[0 0 3 1 2 1 1 1],space,0,2.7164215439113377,0.005989032945535655,None,1033.6070663674213,None,1,1036.3194659766664,None,None,1036.8190391415706,None,,2.4714514246130648,,,,,,,,,,,,,,,,,,,,,,,,,,,,,,,,,,,,,,,,,,,,,23_SN,23,25,F,2022-12-14_15h04.43.222,dynamic target,2022.1.3,120.1279848360174,
1,2,4,2,L,0,123,123,123,,,,,,,None,1037.8514948047925,None,1036.8606863998389,None,1037.3519117298993,None,1,[0.009530266517913333],[0.5174444671793026],1037.8514948047925,None,[1 1 1 2 3 2 0 3],space,0,3.0777419906241903,0.0026654663497538422,None,1037.8681804682774,None,1,1040.9488275745287,None,None,1041.4484020222792,None,,,,,,,,,,,,,,,,,,,,,,,,,,,,,,,,,,,,,,,,,,,,,,,23_SN,23,25,F,2022-12-14_15h04.43.222,dynamic target,2022.1.3,120.1279848360174,
1,1,1,1,L,0,124,124,124,,,,,,,None,1042.480827538609,None,1041.4984086289387,None,1041.9812691585105,None,1,[0.008607899896787785],[0.5172648686716457],1042.480827538609,None,[1 3 1 3 0 1 0 0],space,0,2.1767094274907777,0.002674766986956456,None,1042.4974808102202,None,1,1044.678976006281,None,None,1045.1785183828695,None,,,,,,,,,,,,,,,,,,,,,,,,,,,,,,,,,,,,,,,,,,,,,,,23_SN,23,25,F,2022-12-14_15h04.43.222,dynamic target,2022.1.3,120.1279848360174,
1,2,1,2,L,0,125,125,125,,,,,,,None,1046.2109483891618,None,1045.2201412670547,None,1045.7113916126214,None,1,[0.009049519798509209],[0.517539077107358],1046.2109483891618,None,[2 0 2 3 2 1 2 2],space,0,2.333187192874675,0.0025240325251161266,None,1046.2276176963542,None,1,1048.5589330052667,None,None,1049.058516112231,None,,,,,,,,,,,,,,,,,,,,,,,,,,,,,,,,,,,,,,,,,,,,,,,23_SN,23,25,F,2022-12-14_15h04.43.222,dynamic target,2022.1.3,120.1279848360174,
1,3,4,2,L,0,126,126,126,,,,,,,None,1050.0909554191605,None,1049.1001450899373,1050.0992961662776,1049.5914002461782,None,2,"[0.00859667499025818, 0.8751886586107958]","[0.341808993138784, 1.3830239642138622]",1050.0909554191605,None,[0 3 2 3 0 3 2 3],space,0,2.003452992251596,0.002798240960601106,None,1050.9735396877425,None,1,1052.980127425141,None,None,1053.4797246434168,None,,,,,,,,,,,,,,,,,,,,,,,,,,,,,,,,,,,,,,,,,,,,,,,23_SN,23,25,F,2022-12-14_15h04.43.222,dynamic target,2022.1.3,120.1279848360174,
1,4,3,2,L,0,127,127,127,,,,,,,None,1054.5121549704209,None,1053.5296808983517,None,1054.0125786304716,None,1,[0.0086062963389395],[0.5172690379229152],1054.5121549704209,None,[1 3 2 1 3 3 0 3],space,0,3.00799394808746,0.002768735491827101,None,1054.5288217119203,None,1,1057.534547055771,None,None,1058.034135614833,None,,,,,,,,,,,,,,,,,,,,,,,,,,,,,,,,,,,,,,,,,,,,,,,23_SN,23,25,F,2022-12-14_15h04.43.222,dynamic target,2022.1.3,120.1279848360174,
1,5,2,2,L,0,128,128,128,,,,,,,None,1059.066550868391,None,1058.0841258652,None,1058.5669899225995,None,1,[0.008034146807858633],[0.5164637310435864],1059.066550868391,None,[1 2 3 1 3 0 1 3],space,0,1.22219531521705,0.0031369124324100994,None,1059.0832201755832,None,1,1060.3071435947795,None,None,1060.8067283053022,None,,,,,,,,,,,,,,,,,,,,,,,,,,,,,,,,,,,,,,,,,,,,,,,23_SN,23,25,F,2022-12-14_15h04.43.222,dynamic target,2022.1.3,120.1279848360174,
1,4,3,1,L,0,129,129,129,,,,,,,None,1061.8391852513705,None,1060.8483614522593,None,1061.3396114771144,None,1,[0.008599240682997333],[0.5178992362573354],1061.8391852513705,None,[2 0 1 3 3 0 2 2],space,0,1.0403043610167515,0.002245334126655507,None,1061.8558276187869,None,1,1062.8965964799975,None,None,1063.396165154939,None,,,,,,,,,,,,,,,,,,,,,,,,,,,,,,,,,,,,,,,,,,,,,,,23_SN,23,25,F,2022-12-14_15h04.43.222,dynamic target,2022.1.3,120.1279848360174,
1,3,3,1,L,0,130,130,130,,,,,,,None,1064.4286198560262,None,1063.4378024711473,1064.4369349462136,1063.9207319537174,None,2,"[0.00867300435584184, 0.833615773367228]","[0.47487673448858914, 1.3414693595323115]",1064.4286198560262,None,[3 2 2 3 0 3 1 1],space,0,2.322747388200696,0.002664183503611639,None,1065.2612353298487,None,1,1067.5842605640805,None,None,1068.0837878672228,None,,,,,,,,,,,,,,,,,,,,,,,,,,,,,,,,,,,,,,,,,,,,,,,23_SN,23,25,F,2022-12-14_15h04.43.222,dynamic target,2022.1.3,120.1279848360174,
1,4,4,2,L,0,131,131,131,,,,,,,None,1069.1162416061752,None,1068.1254229384497,None,1068.6166800189606,None,1,[0.008633236114974352],[0.5176317627658591],1069.1162416061752,None,[3 3 2 2 0 1 0 1],space,0,2.9789762813670677,0.0026670699082842475,None,1069.1328897464005,None,1,1072.113668536843,None,None,1072.613247795268,None,,,,,,,,,,,,,,,,,,,,,,,,,,,,,,,,,,,,,,,,,,,,,,,23_SN,23,25,F,2022-12-14_15h04.43.222,dynamic target,2022.1.3,120.1279848360174,
1,5,2,2,L,0,132,132,132,,,,,,,None,1073.64566564659,None,1072.6632159165329,None,1073.1377700151313,None,1,[0.00853670191713718],[0.5168177966727399],1073.64566564659,None,[3 3 0 2 3 3 2 3],space,0,0.9704556150311419,0.0030913713821973943,None,1073.6540195108123,None,1,1074.6281679092103,None,None,1075.1277243971103,None,,,,,,,,,,,,,,,,,,,,,,,,,,,,,,,,,,,,,,,,,,,,,,,23_SN,23,25,F,2022-12-14_15h04.43.222,dynamic target,2022.1.3,120.1279848360174,
1,6,2,2,L,0,133,133,133,,,,,,,None,1076.1601839088717,None,1075.169379993881,1076.1685038097335,1075.660593778323,None,5,"[0.008645423156394827, 0.24165973395042784, 0.2586183230246206, 0.28329996863431006, 0.3250383410741051]","[0.23335458582323554, 0.25004698425232164, 0.27500283829772343, 0.29163815005836113, 0.825180416322155]",1076.1601839088717,None,[0 2 0 1 0 3 2 0],space,0,1.322764706628277,0.0028848330985056236,None,1076.4848883891489,None,1,1077.8087596606358,None,None,1078.3083334669632,None,,,,,,,,,,,,,,,,,,,,,,,,,,,,,,,,,,,,,,,,,,,,,,,23_SN,23,25,F,2022-12-14_15h04.43.222,dynamic target,2022.1.3,120.1279848360174,
1,3,1,0,L,0,134,134,134,,,,,,,None,1079.3407949350656,None,1078.3499624446692,None,1078.8328851922956,None,1,[0.008698340573801033],[0.5165195348654379],1079.3407949350656,None,[3 1 2 0 0 0 1 3],space,0,2.4426912893243298,0.003355637757522345,None,1079.3490981268517,None,1,1081.788689206707,None,None,1082.2882283761794,None,,,,,,,,,,,,,,,,,,,,,,,,,,,,,,,,,,,,,,,,,,,,,,,23_SN,23,25,F,2022-12-14_15h04.43.222,dynamic target,2022.1.3,120.1279848360174,
1,4,2,2,L,0,135,135,135,,,,,,,None,1083.3206850015363,None,1082.3298560710389,1083.3290049023979,1082.8211144343963,None,1,[0.8174791681767601],[1.3247157051839622],1083.3206850015363,None,[0 3 3 1 0 3 3 0],space,0,3.0863996008224603,0.002993554337990645,None,1084.1449687081672,None,1,1087.233975483521,None,None,1087.733551214118,None,,,,,,,,,,,,,,,,,,,,,,,,,,,,,,,,,,,,,,,,,,,,,,,23_SN,23,25,F,2022-12-14_15h04.43.222,dynamic target,2022.1.3,120.1279848360174,
1,7,3,0,L,0,136,136,136,,,,,,,None,1088.7659902003359,None,1087.7835587829122,None,1088.2664193124842,None,1,[0.008987943167312551],[0.5176442705189856],1088.7659902003359,None,[2 0 1 2 3 0 3 2],space,0,1.4557157089484463,0.0021895303052588133,None,1088.7826498861796,None,1,1090.2397216736272,None,None,1090.7392909899918,None,,,,,,,,,,,,,,,,,,,,,,,,,,,,,,,,,,,,,,,,,,,,,,,23_SN,23,25,F,2022-12-14_15h04.43.222,dynamic target,2022.1.3,120.1279848360174,
1,8,3,2,L,0,137,137,137,,,,,,,None,1091.771742483963,None,1090.7893027280372,None,1091.272165823302,None,1,[0.008626180459259558],[0.5172853942156053],1091.771742483963,None,[1 2 3 1 1 3 0 3],space,0,2.354958059815999,0.0029050379307591356,None,1091.788387417072,None,1,1094.144698348271,None,None,1094.6442625332497,None,,,,,,,,,,,,,,,,,,,,,,,,,,,,,,,,,,,,,,,,,,,,,,,23_SN,23,25,F,2022-12-14_15h04.43.222,dynamic target,2022.1.3,120.1279848360174,
1,1,4,2,L,0,138,138,138,,,,,,,None,1095.6766973822876,None,1094.6859165264623,None,1095.1688007886942,None,1,[0.008616879822284318],[0.5165192141539592],1095.6766973822876,None,[1 1 1 2 3 1 3 0],space,0,2.2666542843346633,0.0034043859236589924,None,1095.6850259102919,None,1,1097.949732622722,None,None,1098.449354856504,None,,,,,,,,,,,,,,,,,,,,,,,,,,,,,,,,,,,,,,,,,,,,,,,23_SN,23,25,F,2022-12-14_15h04.43.222,dynamic target,2022.1.3,120.1279848360174,
1,2,1,2,L,0,139,139,139,,,,,,,None,1099.4817627336945,None,1098.499332278406,None,1098.9822046743077,None,1,[0.008570376637408117],[0.5177414461400076],1099.4817627336945,None,[0 1 2 0 3 1 0 3],space,0,2.115445810876963,0.002356941770813137,None,1099.4984381344077,None,1,1101.6132727787033,None,None,1102.1128331151426,None,,,,,,,,,,,,,,,,,,,,,,,,,,,,,,,,,,,,,,,,,,,,,,,23_SN,23,25,F,2022-12-14_15h04.43.222,dynamic target,2022.1.3,120.1279848360174,
1,3,3,2,L,0,140,140,140,,,,,,,None,1103.1452721013602,None,1102.154471072774,1103.153596171473,1102.6457028170669,None,2,"[0.008669155816505736, 0.9498407025380402]","[0.5089407985590242, 1.4584120413101118]",1103.1452721013602,None,[0 2 0 1 2 0 0 3],space,0,1.3028648712818267,0.0023899750676719123,None,1104.1027765287843,None,1,1105.410006074278,None,None,1105.9095699385452,None,,,,,,,,,,,,,,,,,,,,,,,,,,,,,,,,,,,,,,,,,,,,,,,23_SN,23,25,F,2022-12-14_15h04.43.222,dynamic target,2022.1.3,120.1279848360174,
1,4,2,2,L,0,141,141,141,,,,,,,None,1106.9420079626282,None,1105.9595685274141,None,1106.4424377161997,None,1,[0.009110134294814998],[0.5176744174111718],1106.9420079626282,None,[3 0 1 2 1 0 1 1],space,0,2.6233994590679686,0.0023967100119079987,None,1106.9587000403455,None,1,1109.5814126448895,None,None,1110.080972019194,None,,,,,,,,,,,,,,,,,,,,,,,,,,,,,,,,,,,,,,,,,,,,,,,23_SN,23,25,F,2022-12-14_15h04.43.222,dynamic target,2022.1.3,120.1279848360174,
1,3,4,1,L,0,142,142,142,,,,,,,None,1111.105110667959,None,1110.1309969064157,None,1110.6055275930657,None,1,[0.008793271213562548],[0.5174954603269271],1111.105110667959,None,[3 3 0 3 0 1 3 2],space,0,2.3639399094622604,0.0027116488233787095,None,1111.1217302648502,None,1,1113.4863620590456,None,None,1113.9859432417402,None,,,,,,,,,,,,,,,,,,,,,,,,,,,,,,,,,,,,,,,,,,,,,,,23_SN,23,25,F,2022-12-14_15h04.43.222,dynamic target,2022.1.3,120.1279848360174,
1,4,4,2,L,0,143,143,143,,,,,,,None,1115.0183950564228,None,1114.0359315678372,None,1114.518818395762,None,1,[0.009276583625933199],[0.5174900082295153],1115.0183950564228,None,[3 2 0 1 1 3 0 1],space,0,2.194477171983408,0.002660976387460323,None,1115.0350278024905,None,0,1117.241495208889,None,None,1117.7410318126686,None,,,,,,,,,,,,,,,,,,,,,,,,,,,,,,,,,,,,,,,,,,,,,,,23_SN,23,25,F,2022-12-14_15h04.43.222,dynamic target,2022.1.3,120.1279848360174,
1,4,2,0,L,0,144,144,144,,,,,,,None,1118.7651669336058,None,1117.7827377611636,1118.7817942275758,1118.2655934800612,None,2,"[0.009287487820984097, 0.7919729729903793]","[0.33330340024872385, 1.3001463086413878]",1118.7651669336058,None,[3 1 2 0 0 3 2 2],space,0,2.496618627616499,0.002480095033206453,None,1119.5644835612845,None,1,1122.062324209943,None,None,1122.5618944884425,None,,,,,,,,,,,,,,,,,,,,,,,,,,,,,,,,,,,,,,,,,,,,,,,23_SN,23,25,F,2022-12-14_15h04.43.222,dynamic target,2022.1.3,120.1279848360174,
1,5,4,2,L,0,145,145,145,,,,,,,None,1123.5859988531352,None,1122.611905264353,None,1123.0864346681565,None,1,[0.008808665371361712],[0.5088250216640517],1123.5859988531352,None,[1 3 1 0 3 2 2 0],space,0,1.442677498724379,0.0028052966165432736,None,1123.594339568181,None,1,1125.0347648189615,None,None,1125.534321627573,None,,,,,,,,,,,,,,,,,,,,,,,,,,,,,,,,,,,,,,,,,,,,,,,23_SN,23,25,F,2022-12-14_15h04.43.222,dynamic target,2022.1.3,120.1279848360174,
1,6,2,2,L,0,146,146,146,,,,,,,None,1126.5667792150648,None,1125.5843596639713,None,1126.0672217971012,None,1,[0.007678798332108272],[0.5165557752786754],1126.5667792150648,None,[1 1 0 2 3 0 2 2],space,0,1.41327433663605,0.002575667096152756,None,1126.583437618062,None,1,1127.9988855271185,None,None,1128.4984564470412,None,,,,,,,,,,,,,,,,,,,,,,,,,,,,,,,,,,,,,,,,,,,,,,,23_SN,23,25,F,2022-12-14_15h04.43.222,dynamic target,2022.1.3,120.1279848360174,
1,7,1,2,L,0,147,147,147,,,,,,,None,1129.5225534353667,None,1128.5484537530635,None,1129.0230065688154,None,1,[0.008689360648531874],[0.508792309078899],1129.5225534353667,None,[3 2 2 0 0 1 0 0],space,0,3.202524788679284,0.0028918887542204175,None,1129.530924938728,None,1,1132.736458112176,None,None,1133.2360261456943,None,,,,,,,,,,,,,,,,,,,,,,,,,,,,,,,,,,,,,,,,,,,,,,,23_SN,23,25,F,2022-12-14_15h04.43.222,dynamic target,2022.1.3,120.1279848360174,
1,8,2,2,L,0,148,148,148,,,,,,,None,1134.2684600325972,None,1133.2776589719397,None,1133.7689125246227,None,1,[0.008622652631402161],[0.5088266252221274],1134.2684600325972,None,[2 1 3 3 0 3 3 1],space,0,1.9123445936479584,0.002863666131588616,None,1134.2768289702656,None,1,1136.191822110244,None,None,1136.69140553792,None,,,,,,,,,,,,,,,,,,,,,,,,,,,,,,,,,,,,,,,,,,,,,,,23_SN,23,25,F,2022-12-14_15h04.43.222,dynamic target,2022.1.3,120.1279848360174,
1,1,4,2,L,0,149,149,149,,,,,,,None,1137.7238345820774,None,1136.7413807148405,None,1137.2242489414914,None,1,[0.00860725847383037],[0.5173735899113581],1137.7238345820774,None,[3 2 0 3 2 0 1 2],space,0,5.135479703681085,0.002158741989205737,None,1137.740500361442,None,1,1142.8777315810505,None,None,1143.3773034631083,None,,,,,,,,,,,,,,,,,,,,,,,,,,,,,,,,,,,,,,,,,,,,,,,23_SN,23,25,F,2022-12-14_15h04.43.222,dynamic target,2022.1.3,120.1279848360174,
1,2,2,2,L,0,150,150,150,,,,,,,None,1144.409742449326,None,1143.4273270674835,None,1143.910192087018,None,1,[0.008036712500597787],[0.516979114617925],1144.409742449326,None,[2 1 3 0 3 1 0 3],space,0,2.689246044739548,0.002486829977215166,None,1144.4264085494021,None,1,1147.1157570109165,None,None,1147.615301953198,None,,,,,,,,,,,,,,,,,,,,,,,,,,,,,,,,,,,,,,,,,,,,,,,23_SN,23,25,F,2022-12-14_15h04.43.222,dynamic target,2022.1.3,120.1279848360174,
1,3,2,2,L,0,151,151,151,,,,,,,None,1148.6477698034616,None,1147.6653294061127,1148.6644310928634,1148.1481905771077,None,2,"[0.007704134550067465, 0.11586284575128047]","[0.02457260365872571, 0.6158798434671553]",1148.6477698034616,None,[0 0 0 3 2 3 2 3],space,0,1.7116509585548556,0.003087202131155209,None,1148.76433661122,None,1,1150.4795254494293,None,None,1150.9790957279288,None,,,,,,,,,,,,,,,,,,,,,,,,,,,,,,,,,,,,,,,,,,,,,,,23_SN,23,25,F,2022-12-14_15h04.43.222,dynamic target,2022.1.3,120.1279848360174,
1,4,4,2,L,0,152,152,152,,,,,,,None,1152.0115488254578,None,1151.0291100316672,None,1151.511960298467,None,1,[0.00910532362036065],[0.5172302318167112],1152.0115488254578,None,[1 3 1 2 1 1 2 0],space,0,3.0394990541374227,0.0028912473308082554,None,1152.0281844579301,None,1,1155.0672298148918,None,None,1155.566827353879,None,,,,,,,,,,,,,,,,,,,,,,,,,,,,,,,,,,,,,,,,,,,,,,,23_SN,23,25,F,2022-12-14_15h04.43.222,dynamic target,2022.1.3,120.1279848360174,
1,5,1,2,L,0,153,153,153,,,,,,,None,1156.5909410192087,None,1155.616799644395,None,1156.091368495728,None,1,[0.008610786301460394],[0.508985377474346],1156.5909410192087,None,[2 2 3 0 0 0 3 3],space,0,2.9805769530657926,0.0027549448921035946,None,1156.599256077325,None,1,1159.580019152898,None,None,1160.0796256718106,None,,,,,,,,,,,,,,,,,,,,,,,,,,,,,,,,,,,,,,,,,,,,,,,23_SN,23,25,F,2022-12-14_15h04.43.222,dynamic target,2022.1.3,120.1279848360174,
1,6,4,2,L,0,154,154,154,,,,,,,None,1161.103718458814,None,1160.1212540080935,None,1160.604142760288,None,1,[0.008612710571242133],[0.5169810388874794],1161.103718458814,None,[0 1 1 1 1 1 2 1],space,0,2.6028889887954847,0.0032533307505673292,None,1161.1203582605372,None,1,1163.7264320254928,None,None,1164.226035658001,None,,,,,,,,,,,,,,,,,,,,,,,,,,,,,,,,,,,,,,,,,,,,,,,23_SN,23,25,F,2022-12-14_15h04.43.222,dynamic target,2022.1.3,120.1279848360174,
1,7,3,2,L,0,155,155,155,,,,,,,None,1165.2584704749675,None,1164.2760117970563,None,1164.7589008699624,None,1,[0.009190953623374298],[0.5174749347834222],1165.2584704749675,None,[2 3 1 3 3 3 2 2],space,0,2.239810080267034,0.0026442993828368344,None,1165.2751234258672,None,1,1167.5148611350755,None,None,1168.0144387899422,None,,,,,,,,,,,,,,,,,,,,,,,,,,,,,,,,,,,,,,,,,,,,,,,23_SN,23,25,F,2022-12-14_15h04.43.222,dynamic target,2022.1.3,120.1279848360174,
1,7,3,0,L,0,156,156,156,,,,,,,None,1169.0385575545868,None,1168.0644556593736,None,1168.5389776868099,None,1,[0.008682946416229242],[0.5175365114143915],1169.0385575545868,None,[1 2 1 2 1 1 2 2],space,0,1.4829758759879041,0.0026212081463654613,None,1169.0552153161607,None,1,1170.5372410333841,None,None,1171.0368190089625,None,,,,,,,,,,,,,,,,,,,,,,,,,,,,,,,,,,,,,,,,,,,,,,,23_SN,23,25,F,2022-12-14_15h04.43.222,dynamic target,2022.1.3,120.1279848360174,
1,5,3,0,L,0,157,157,157,,,,,,,None,1172.0692765964543,None,1171.0951801533388,None,1171.5696941629844,None,1,[0.00943020449199139],[0.5175788453482255],1172.0692765964543,None,[0 2 1 2 1 0 2 1],space,0,0.9644153323688442,0.002672842717174717,None,1172.0859022868663,None,1,1173.0517727976253,None,None,1173.551327681967,None,,,,,,,,,,,,,,,,,,,,,,,,,,,,,,,,,,,,,,,,,,,,,,,23_SN,23,25,F,2022-12-14_15h04.43.222,dynamic target,2022.1.3,120.1279848360174,
1,6,3,2,L,0,158,158,158,,,,,,,None,1174.5754467673232,None,1173.59296596031,1174.5921067738784,1174.0758717102203,None,2,"[0.008687115667271428, 0.7756131525118235]","[0.31669214185990313, 1.2828451995565047]",1174.5754467673232,None,[2 1 0 2 3 3 3 0],space,0,1.2449671231263437,0.003323566595554439,None,1175.3581223104322,None,0,1176.6070256370456,None,None,1177.1066116304146,None,,,,,,,,,,,,,,,,,,,,,,,,,,,,,,,,,,,,,,,,,,,,,,,23_SN,23,25,F,2022-12-14_15h04.43.222,dynamic target,2022.1.3,120.1279848360174,
1,7,3,2,L,0,159,159,159,,,,,,,None,1178.1307300743474,None,1177.1566025222046,None,1177.6311441130497,None,1,[0.008675890760514449],[0.5175923152362429],1178.1307300743474,None,[0 3 0 1 2 3 3 1],space,0,1.526744673697749,0.0025301260461674246,None,1178.147382383824,None,1,1179.6793842721738,None,None,1180.178957437078,None,,,,,,,,,,,,,,,,,,,,,,,,,,,,,,,,,,,,,,,,,,,,,,,23_SN,23,25,F,2022-12-14_15h04.43.222,dynamic target,2022.1.3,120.1279848360174,
1,6,1,1,L,0,160,160,160,,,,,,,None,1181.2113890469284,None,1180.2205748691658,None,1180.711851833797,None,1,[0.008704434094624958],[0.5171891807292468],1181.2113890469284,None,[1 3 0 1 3 2 3 0],space,0,3.1018521281259837,0.002790543881701524,None,1181.2280721447205,None,1,1184.3337139111231,None,None,1184.8332707197346,None,,,,,,,,,,,,,,,,,,,,,,,,,,,,,,,,,,,,,,,,,,,,,,,23_SN,23,25,F,2022-12-14_15h04.43.222,dynamic target,2022.1.3,120.1279848360174,
1,1,2,0,L,0,161,161,161,,,,,,,None,1185.8657228872,None,1184.8749157330217,None,1185.3578458570153,None,1,[0.00872463892687847],[0.5165644344924658],1185.8657228872,None,[2 2 0 3 3 2 1 2],space,0,3.8799540028139745,0.0034233079095429275,None,1185.8740504530695,None,1,1189.7540542759518,None,None,1190.253623271605,None,,,,,,,,,,,,,,,,,,,,,,,,,,,,,,,,,,,,,,,,,,,,,,,23_SN,23,25,F,2022-12-14_15h04.43.222,dynamic target,2022.1.3,120.1279848360174,
1,2,1,2,L,0,162,162,162,,,,,,,None,1191.2860487879345,None,1190.295270850585,None,1190.7864926528175,None,1,[0.00861655911080561],[0.5177680652045638],1191.2860487879345,None,[1 2 0 1 0 2 0 0],space,0,1.938214475812174,0.002513449041543936,None,1191.3027161708571,None,0,1193.2510424731229,None,None,1193.7506153173154,None,,,,,,,,,,,,,,,,,,,,,,,,,,,,,,,,,,,,,,,,,,,,,,,23_SN,23,25,F,2022-12-14_15h04.43.222,dynamic target,2022.1.3,120.1279848360174,
1,1,2,1,L,0,163,163,163,,,,,,,None,1194.7747257434578,None,1193.8006248103793,None,1194.2751554970293,None,1,[0.008965814065504674],[0.5176012951617395],1194.7747257434578,None,[1 0 2 3 3 3 2 0],space,0,2.305577450168812,0.0026933682609069365,None,1194.7913732422599,None,1,1197.1060436180633,None,None,1197.6056148586977,None,,,,,,,,,,,,,,,,,,,,,,,,,,,,,,,,,,,,,,,,,,,,,,,23_SN,23,25,F,2022-12-14_15h04.43.222,dynamic target,2022.1.3,120.1279848360174,
1,8,4,1,L,0,164,164,164,,,,,,,None,1198.629754790309,None,1197.6472624376777,None,1198.1301765260903,None,1,[0.008640291770689146],[0.5170394084025247],1198.629754790309,None,[2 2 2 2 2 0 2 3],space,0,2.0188853147233203,0.003100672018945261,None,1198.6463968370138,None,1,1200.6696497123537,None,None,1201.169205879542,None,,,,,,,,,,,,,,,,,,,,,,,,,,,,,,,,,,,,,,,,,,,,,,,23_SN,23,25,F,2022-12-14_15h04.43.222,dynamic target,2022.1.3,120.1279848360174,
1,1,3,2,L,0,165,165,165,,,,,,,None,1202.2016708754722,None,1201.2108640420056,None,1201.7020941827402,None,1,[0.008618483380359976],[0.5088644691934405],1202.2016708754722,None,[2 2 2 3 2 2 1 0],space,0,2.1986210868333274,0.0028085037326945894,None,1202.2099917063974,None,1,1204.408083087401,None,None,1204.907673250021,None,,,,,,,,,,,,,,,,,,,,,,,,,,,,,,,,,,,,,,,,,,,,,,,23_SN,23,25,F,2022-12-14_15h04.43.222,dynamic target,2022.1.3,120.1279848360174,
1,2,3,2,L,0,166,166,166,,,,,,,None,1205.940106142718,None,1204.957650671923,1205.9567491515575,1205.4405480833311,None,4,"[0.008595392143888603, 0.3167479456817546, 0.6837866805899466, 0.7003546429100425]","[0.2514507390158087, 0.6004314854144468, 0.6920510983411532, 1.2084779475483174]",1205.940106142718,None,[3 3 1 2 1 2 3 3],space,0,1.7122894953915875,0.0025333331623187405,None,1206.6478377943251,None,1,1208.3630215011485,None,None,1208.8626280200613,None,,,,,,,,,,,,,,,,,,,,,,,,,,,,,,,,,,,,,,,,,,,,,,,23_SN,23,25,F,2022-12-14_15h04.43.222,dynamic target,2022.1.3,120.1279848360174,
1,2,3,0,L,0,167,167,167,,,,,,,None,1209.8950282001729,None,1208.9042371136468,None,1209.3954714236324,None,1,[0.008611748436351263],[0.517152619604758],1209.8950282001729,None,[2 2 1 2 3 1 3 2],space,0,2.721297643390926,0.003120876851198773,None,1209.9116943002489,None,1,1212.6343358350978,None,None,1213.1339468439733,None,,,,,,,,,,,,,,,,,,,,,,,,,,,,,,,,,,,,,,,,,,,,,,,23_SN,23,25,F,2022-12-14_15h04.43.222,dynamic target,2022.1.3,120.1279848360174,
1,6,1,0,L,0,168,168,168,,,,,,,None,1214.166348627643,None,1213.1839050231779,None,1213.666794096084,None,1,[0.00916625882837252],[0.5173674963903068],1214.166348627643,None,[3 1 1 1 0 0 3 0],space,0,2.75301473982222,0.0027796396868779993,None,1214.1830262733374,None,1,1216.9389772378136,None,None,1217.4385471956014,None,,,,,,,,,,,,,,,,,,,,,,,,,,,,,,,,,,,,,,,,,,,,,,,23_SN,23,25,F,2022-12-14_15h04.43.222,dynamic target,2022.1.3,120.1279848360174,
1,7,4,2,L,0,169,169,169,,,,,,,None,1218.4710163287116,None,1217.480165589824,None,1217.9714271602975,None,1,[0.008643498886840462],[0.517634969881783],1218.4710163287116,None,[1 0 3 3 1 3 0 2],space,0,3.215932137978143,0.0025410302412183228,None,1218.4876535647418,None,1,1221.7015448037341,None,None,1222.2011272692753,None,,,,,,,,,,,,,,,,,,,,,,,,,,,,,,,,,,,,,,,,,,,,,,,23_SN,23,25,F,2022-12-14_15h04.43.222,dynamic target,2022.1.3,120.1279848360174,
1,8,3,2,L,0,170,170,170,,,,,,,None,1223.233554741946,None,1222.242752398442,None,1222.7256642418731,None,1,[0.008628746152226086],[0.5166237661421746],1223.233554741946,None,[1 1 0 0 1 3 3 0],space,0,2.190081498511745,0.003150061608721444,None,1223.2418989848195,None,1,1225.4316730306543,None,None,1225.9312429884421,None,,,,,,,,,,,,,,,,,,,,,,,,,,,,,,,,,,,,,,,,,,,,,,,23_SN,23,25,F,2022-12-14_15h04.43.222,dynamic target,2022.1.3,120.1279848360174,
1,1,3,2,L,0,171,171,171,,,,,,,None,1226.9553630359333,None,1225.9645232012408,None,1226.4557812438866,None,1,[0.00870186840165843],[0.5175310593167524],1226.9553630359333,None,[2 2 1 2 3 1 0 3],space,0,2.443075501845442,0.002523070390452631,None,1226.9720140625632,None,1,1229.4199051591595,None,None,1229.9194690234267,None,,,,,,,,,,,,,,,,,,,,,,,,,,,,,,,,,,,,,,,,,,,,,,,23_SN,23,25,F,2022-12-14_15h04.43.222,dynamic target,2022.1.3,120.1279848360174,
1,2,3,2,L,0,172,172,172,,,,,,,None,1230.9435932401689,None,1229.9611053775,None,1230.4440124102568,None,1,[0.008656648063151806],[0.517663833927827],1230.9435932401689,None,[1 2 2 1 3 2 2 3],space,0,1.5266516673277692,0.0024072934952528158,None,1230.960235607585,None,1,1232.4922403823396,None,None,1232.99181483009,None,,,,,,,,,,,,,,,,,,,,,,,,,,,,,,,,,,,,,,,,,,,,,,,23_SN,23,25,F,2022-12-14_15h04.43.222,dynamic target,2022.1.3,120.1279848360174,
1,3,2,2,L,0,173,173,173,,,,,,,None,1234.0159426067312,None,1233.0418374723306,None,1233.5163781010408,None,1,[0.008531249819725417],[0.5085780737163077],1234.0159426067312,None,[3 1 0 3 1 2 3 3],space,0,3.215669154449415,0.0031151040420809295,None,1234.0242756246982,None,1,1237.2381915584854,None,None,1237.7377326522274,None,,,,,,,,,,,,,,,,,,,,,,,,,,,,,,,,,,,,,,,,,,,,,,,23_SN,23,25,F,2022-12-14_15h04.43.222,dynamic target,2022.1.3,120.1279848360174,
1,4,1,2,L,0,174,174,174,,,,,,,None,1238.770178726172,None,1237.7793677234542,None,1238.2706289732162,None,1,[0.008740353796156342],[0.5091107757179998],1238.770178726172,None,[1 3 3 2 2 2 2 1],space,0,1.6603229879476658,0.00253429529720961,None,1238.7785101405807,None,1,1240.4437491060164,None,None,1240.9433094424558,None,,,,,,,,,,,,,,,,,,,,,,,,,,,,,,,,,,,,,,,,,,,,,,,23_SN,23,25,F,2022-12-14_15h04.43.222,dynamic target,2022.1.3,120.1279848360174,
1,5,2,2,L,0,175,175,175,,,,,,,None,1241.9674208628041,None,1240.993310917729,None,1241.4678499428812,None,1,[0.008678456453480976],[0.508877939081458],1241.9674208628041,None,[2 1 0 2 2 2 2 2],space,0,0.9594654692164113,0.002930694860197036,None,1241.9757567671757,None,1,1242.9332644017156,None,None,1243.432823134597,None,,,,,,,,,,,,,,,,,,,,,,,,,,,,,,,,,,,,,,,,,,,,,,,23_SN,23,25,F,2022-12-14_15h04.43.222,dynamic target,2022.1.3,120.1279848360174,
1,6,1,2,L,0,176,176,176,,,,,,,None,1244.4652656486426,None,1243.4828149885218,None,1243.9657011750232,None,1,[0.00880417540884082],[0.5174425429097482],1244.4652656486426,None,[0 1 3 0 0 1 2 2],space,0,1.6042414296996412,0.0026202460117019655,None,1244.4819346351233,None,1,1246.088875604301,None,None,1246.5884433171075,None,,,,,,,,,,,,,,,,,,,,,,,,,,,,,,,,,,,,,,,,,,,,,,,23_SN,23,25,F,2022-12-14_15h04.43.222,dynamic target,2022.1.3,120.1279848360174,
1,5,1,1,L,0,177,177,177,,,,,,,None,1247.6125790794679,None,1246.6300848025667,None,1247.1129908731887,None,1,[0.008632273980083482],[0.5170233728215408],1247.6125790794679,None,[3 0 0 3 0 0 3 3],space,0,1.0495164816068154,0.0030589795085234073,None,1247.6292201640376,None,1,1248.6783201510168,None,None,1249.1778891466697,None,,,,,,,,,,,,,,,,,,,,,,,,,,,,,,,,,,,,,,,,,,,,,,,23_SN,23,25,F,2022-12-14_15h04.43.222,dynamic target,2022.1.3,120.1279848360174,
1,6,1,2,L,0,178,178,178,,,,,,,None,1250.210341282064,None,1249.2195075408924,None,1249.710741850878,None,1,[0.008588336487946435],[0.5177427289863772],1250.210341282064,None,[0 1 0 0 3 1 0 0],space,0,1.7947104576162474,0.002249824089858521,None,1250.226980442364,None,1,1252.025443014997,None,None,1252.5250338190403,None,,,,,,,,,,,,,,,,,,,,,,,,,,,,,,,,,,,,,,,,,,,,,,,23_SN,23,25,F,2022-12-14_15h04.43.222,dynamic target,2022.1.3,120.1279848360174,
1,7,2,2,L,0,179,179,179,,,,,,,None,1253.5574410548077,None,1252.5749923189567,None,1253.0578874853836,None,1,[0.008627463305856509],[0.5171446018141523],1253.5574410548077,None,[0 0 1 3 0 0 2 1],space,0,1.5688990091091455,0.0029316569950879057,None,1253.5741052306141,None,1,1255.139432904884,None,space,1255.6473211279044,None,1.4840313379313557,,,,,,,,,,,,,,,,,,,,,,,,,,,,,,,,,,,,,,,,,,,,,,23_SN,23,25,F,2022-12-14_15h04.43.222,dynamic target,2022.1.3,120.1279848360174,
1,8,2,2,L,0,180,180,180,,,,,,,None,1258.1784663955157,None,1257.1876666497758,None,1257.67891250538,None,1,[0.009052085491475736],[0.5176028987200425],1258.1784663955157,None,[1 2 1 2 3 3 3 3],space,0,3.9380980574937894,0.00248362286106385,None,1258.195146606903,None,1,1262.1333951879146,None,None,1262.632973163493,None,,,,,,,,,,,,,,,,,,,,,,,,,,,,,,,,,,,,,,,,,,,,,,,23_SN,23,25,F,2022-12-14_15h04.43.222,dynamic target,2022.1.3,120.1279848360174,
1,2,2,0,L,0,181,181,181,,,,,,,None,1263.665416960385,None,1262.68295154753,1263.6820776083637,1263.1658451103985,None,1,[0.033173127188319995],[0.542300900622422],1263.665416960385,None,[3 1 2 1 1 0 1 0],space,0,2.3784957270750056,0.002458286643104657,None,1263.7070767584778,None,1,1266.088331998104,None,None,1266.5879016351803,None,,,,,,,,,,,,,,,,,,,,,,,,,,,,,,,,,,,,,,,,,,,,,,,23_SN,23,25,F,2022-12-14_15h04.43.222,dynamic target,2022.1.3,120.1279848360174,
1,3,3,2,L,0,182,182,182,,,,,,,None,1267.6203463942072,None,1266.6379258809789,1267.637007683609,1267.1874039869585,None,1,[0.07394776120827373],[0.5753842285571409],1267.6203463942072,None,[0 0 0 1 3 0 2 1],space,0,1.4625516771413913,0.003014721304680279,None,1267.6952819472071,None,1,1269.1606928782137,None,None,1269.6602554596343,None,,,,,,,,,,,,,,,,,,,,,,,,,,,,,,,,,,,,,,,,,,,,,,,23_SN,23,25,F,2022-12-14_15h04.43.222,dynamic target,2022.1.3,120.1279848360174,
1,4,4,2,L,0,183,183,183,,,,,,,None,1270.692706312182,None,1269.7018728917221,None,1270.1931351036187,None,1,[0.00863483967305001],[0.5179633785814985],1270.692706312182,None,[0 2 3 3 3 2 2 1],space,0,2.4476090813145674,0.0023120421440125938,None,1270.7093400203844,None,1,1273.1572516425247,None,None,1273.6568209588893,None,,,,,,,,,,,,,,,,,,,,,,,,,,,,,,,,,,,,,,,,,,,,,,,23_SN,23,25,F,2022-12-14_15h04.43.222,dynamic target,2022.1.3,120.1279848360174,
1,3,2,1,L,0,184,184,184,,,,,,,None,1274.6892849926846,None,1273.6984547472696,None,1274.1896771909255,None,1,[0.008639329635798276],[0.5090841566534436],1274.6892849926846,None,[0 3 1 0 0 3 2 1],space,0,1.5310691491899888,0.00278092253347495,None,1274.697586260201,None,1,1276.2296173333086,None,None,1276.7291600306087,None,,,,,,,,,,,,,,,,,,,,,,,,,,,,,,,,,,,,,,,,,,,,,,,23_SN,23,25,F,2022-12-14_15h04.43.222,dynamic target,2022.1.3,120.1279848360174,
1,4,1,2,L,0,185,185,185,,,,,,,None,1277.7616156938307,None,1276.7791833142724,1277.7782734554048,1277.2620518616347,None,2,"[0.040577075661531126, 0.3903060422710496]","[0.31569184231511827, 0.8904747365834282]",1277.7616156938307,None,[2 1 0 3 1 0 3 1],space,0,1.259902984009159,0.0031750771152019297,None,1278.1529310155718,None,1,1279.410196256269,None,None,1279.9097684590383,None,,,,,,,,,,,,,,,,,,,,,,,,,,,,,,,,,,,,,,,,,,,,,,,23_SN,23,25,F,2022-12-14_15h04.43.222,dynamic target,2022.1.3,120.1279848360174,
1,5,1,2,L,0,186,186,186,,,,,,,None,1280.9421968617728,None,1279.9597500501914,None,1280.4426259739212,None,1,[0.008629066863932167],[0.5174948189039696],1280.9421968617728,None,[1 1 2 3 1 3 1 3],space,0,2.869681930317711,0.002541992376336566,None,1280.9588719417743,None,1,1283.8313823376413,None,None,1284.330951654006,None,,,,,,,,,,,,,,,,,,,,,,,,,,,,,,,,,,,,,,,,,,,,,,,23_SN,23,25,F,2022-12-14_15h04.43.222,dynamic target,2022.1.3,120.1279848360174,
1,6,3,2,L,0,187,187,187,,,,,,,None,1285.3634098829211,None,1284.3726114200276,1285.371721765992,1284.8638200730838,None,1,[0.03315901587711778],[0.5335791480999887],1285.3634098829211,None,[0 0 0 0 1 3 2 3],space,0,2.576200971287335,0.0026866333168982237,None,1285.3967096911997,None,1,1287.9695006455927,None,None,1288.469071886227,None,,,,,,,,,,,,,,,,,,,,,,,,,,,,,,,,,,,,,,,,,,,,,,,23_SN,23,25,F,2022-12-14_15h04.43.222,dynamic target,2022.1.3,120.1279848360174,
1,8,1,0,L,0,188,188,188,,,,,,,None,1289.5015092688864,None,1288.5106982982402,None,1289.001943512421,None,1,[0.00915952388459118],[0.5173100890101523],1289.5015092688864,None,[2 0 1 0 2 3 2 1],space,0,2.693955374176767,0.0029351848224905552,None,1289.5181609369397,None,1,1292.2158430899153,None,None,1292.715420744782,None,,,,,,,,,,,,,,,,,,,,,,,,,,,,,,,,,,,,,,,,,,,,,,,23_SN,23,25,F,2022-12-14_15h04.43.222,dynamic target,2022.1.3,120.1279848360174,
1,1,4,2,L,0,189,189,189,,,,,,,None,1293.7478517132095,None,1292.765420295786,None,1293.2482837117623,None,1,[0.008642536752176966],[0.5176118786453117],1293.7478517132095,None,[1 1 2 0 0 3 1 2],space,0,4.4788063042083195,0.0026398094205433154,None,1293.764523265383,None,1,1298.2439820067952,None,None,1298.7435510024484,None,,,,,,,,,,,,,,,,,,,,,,,,,,,,,,,,,,,,,,,,,,,,,,,23_SN,23,25,F,2022-12-14_15h04.43.222,dynamic target,2022.1.3,120.1279848360174,
1,2,4,2,L,0,190,190,190,,,,,,,None,1299.7760018549961,None,1298.7935723618425,1299.7926477502401,1299.2764585483437,None,2,"[0.009339122391793353, 0.7927131754108814]","[0.20841027739652418, 1.3000064783745984]",1299.7760018549961,None,[1 1 3 3 2 0 0 0],space,0,3.5403136616537267,0.002562517919614038,None,1300.5753088613264,None,1,1304.1139353689114,None,None,1304.6135162308942,None,,,,,,,,,,,,,,,,,,,,,,,,,,,,,,,,,,,,,,,,,,,,,,,23_SN,23,25,F,2022-12-14_15h04.43.222,dynamic target,2022.1.3,120.1279848360174,
1,3,1,2,L,0,191,191,191,,,,,,,None,1305.6459346915685,None,1304.655145850024,None,1305.146392347051,None,1,[0.008667552258430078],[0.517699432918107],1305.6459346915685,None,[1 0 1 3 1 0 2 3],space,0,1.7163599672803684,0.0025731014034136024,None,1305.6626011123562,None,1,1307.3777758392544,None,None,1307.8773605497768,None,,,,,,,,,,,,,,,,,,,,,,,,,,,,,,,,,,,,,,,,,,,,,,,23_SN,23,25,F,2022-12-14_15h04.43.222,dynamic target,2022.1.3,120.1279848360174,
1,2,1,1,L,0,192,192,192,,,,,,,None,1308.9014594303007,None,1307.9189722090555,None,1308.4019032951837,None,1,[0.008574866600156383],[0.5169322907213427],1308.9014594303007,None,[0 2 0 2 2 0 1 0],space,0,2.8618379655013086,0.003210355393548525,None,1308.9181264925119,None,1,1311.7823307781168,None,None,1312.2818885488632,None,,,,,,,,,,,,,,,,,,,,,,,,,,,,,,,,,,,,,,,,,,,,,,,23_SN,23,25,F,2022-12-14_15h04.43.222,dynamic target,2022.1.3,120.1279848360174,
1,3,1,2,L,0,193,193,193,,,,,,,None,1313.3060339325725,None,1312.331872064286,None,1312.806442519177,None,1,[0.008657930909521383],[0.5179948083200543],1313.3060339325725,None,[0 2 1 2 0 3 3 1],space,0,1.527263264388239,0.001983954156457912,None,1313.3226596229842,None,1,1314.854681395455,None,None,1315.3542378833545,None,,,,,,,,,,,,,,,,,,,,,,,,,,,,,,,,,,,,,,,,,,,,,,,23_SN,23,25,F,2022-12-14_15h04.43.222,dynamic target,2022.1.3,120.1279848360174,
1,4,4,2,L,0,194,194,194,,,,,,,None,1316.3866887679733,None,1315.3958886694509,None,1315.8787947400729,None,1,[0.00861431412931779],[0.5164816908941248],1316.3866887679733,None,[2 1 0 3 1 2 3 2],space,0,2.920304335360015,0.003502523679344449,None,1316.3950089574755,None,1,1319.3174919966414,None,None,1319.8170674065268,None,,,,,,,,,,,,,,,,,,,,,,,,,,,,,,,,,,,,,,,,,,,,,,,23_SN,23,25,F,2022-12-14_15h04.43.222,dynamic target,2022.1.3,120.1279848360174,
1,5,4,2,L,0,195,195,195,,,,,,,None,1320.849531761034,None,1319.8587104955445,None,1320.3499563511486,None,1,[0.008691926341725775],[0.5091094928716302],1320.849531761034,None,[2 0 0 0 0 0 3 0],space,0,1.0163202631815693,0.0026584106940390484,None,1320.8578336699738,None,1,1321.8736309622695,None,None,1322.37320541002,None,,,,,,,,,,,,,,,,,,,,,,,,,,,,,,,,,,,,,,,,,,,,,,,23_SN,23,25,F,2022-12-14_15h04.43.222,dynamic target,2022.1.3,120.1279848360174,
1,6,2,2,L,0,196,196,196,,,,,,,None,1323.4056671988342,None,1322.4148504233071,None,1322.9060690184238,None,1,[0.008610144878275605],[0.5090636311097114],1323.4056671988342,None,[3 2 1 0 1 2 3 2],space,0,3.260669805494217,0.0027231944413870224,None,1323.4139861054896,None,1,1326.6778304243721,None,None,1327.1773917229461,None,,,,,,,,,,,,,,,,,,,,,,,,,,,,,,,,,,,,,,,,,,,,,,,23_SN,23,25,F,2022-12-14_15h04.43.222,dynamic target,2022.1.3,120.1279848360174,
1,7,3,2,L,0,197,197,197,,,,,,,None,1328.2098624596142,None,1327.227411478782,1328.2264855843332,1327.7102880439352,None,2,"[0.008598278548106464, 0.8587201168929823]","[0.3083574882634821, 1.3665294448546774]",1328.2098624596142,None,[0 2 0 0 2 1 1 3],space,0,2.4619294965973495,0.002661938522123819,None,1329.0757928151615,None,1,1331.5403144128445,None,None,1332.0398949541159,None,,,,,,,,,,,,,,,,,,,,,,,,,,,,,,,,,,,,,,,,,,,,,,,23_SN,23,25,F,2022-12-14_15h04.43.222,dynamic target,2022.1.3,120.1279848360174,
1,8,3,2,L,0,198,198,198,,,,,,,None,1333.0723409959892,None,1332.0899009193522,None,1332.5727518275753,None,1,[0.008155055088991503],[0.5167959882824107],1333.0723409959892,None,[1 0 3 1 0 2 2 0],space,0,1.808924396641487,0.0029262048974487698,None,1333.0889840048285,None,1,1334.8957526877239,None,None,1335.395318155549,None,,,,,,,,,,,,,,,,,,,,,,,,,,,,,,,,,,,,,,,,,,,,,,,23_SN,23,25,F,2022-12-14_15h04.43.222,dynamic target,2022.1.3,120.1279848360174,
1,1,3,2,L,0,199,199,199,,,,,,,None,1336.427775422329,None,1335.4369644516828,None,1335.9281920267244,None,1,[0.008612389859536052],[0.5175900702552099],1336.427775422329,None,[0 2 3 1 1 1 1 1],space,0,1.8294916328704858,0.0026500721914999303,None,1336.4444460123682,None,1,1338.276208072568,None,None,1338.7757530148497,None,,,,,,,,,,,,,,,,,,,,,,,,,,,,,,,,,,,,,,,,,,,,,,,23_SN,23,25,F,2022-12-14_15h04.43.222,dynamic target,2022.1.3,120.1279848360174,
1,2,3,2,L,0,200,200,200,,,,,,,None,1339.799862799569,None,1338.81738680323,None,1339.3002848560614,None,1,[0.0086197662271843],[0.5170038094129268],1339.799862799569,None,[2 3 0 1 0 3 0 2],space,0,2.0258623960294244,0.003269687043484737,None,1339.8165260132405,None,1,1341.8398099976075,None,None,1342.3393504499263,None,,,,,,,,,,,,,,,,,,,,,,,,,,,,,,,,,,,,,,,,,,,,,,,23_SN,23,25,F,2022-12-14_15h04.43.222,dynamic target,2022.1.3,120.1279848360174,
1,3,4,2,L,0,201,201,201,,,,,,,None,1343.3634778737846,None,1342.3810547948633,None,1342.8639024959703,None,1,[0.009316993289758102],[0.517290525601311],1343.3634778737846,None,[2 3 1 2 0 0 0 3],space,0,1.853680344719578,0.0029300534365575004,None,1343.3801061298896,None,1,1345.2368458525252,None,None,1345.7364283180664,None,,,,,,,,,,,,,,,,,,,,,,,,,,,,,,,,,,,,,,,,,,,,,,,23_SN,23,25,F,2022-12-14_15h04.43.222,dynamic target,2022.1.3,120.1279848360174,
1,2,4,1,L,0,202,202,202,,,,,,,None,1346.7688756427865,None,1345.7780675585445,None,1346.2693050756461,None,1,[0.00911879350860545],[0.5178071920222465],1346.7688756427865,None,[1 3 0 2 1 0 0 2],space,0,2.4794785157655497,0.002386447240041889,None,1346.7855266694164,None,1,1349.2667236678121,None,None,1349.766299398409,None,,,,,,,,,,,,,,,,,,,,,,,,,,,,,,,,,,,,,,,,,,,,,,,23_SN,23,25,F,2022-12-14_15h04.43.222,dynamic target,2022.1.3,120.1279848360174,
1,4,1,0,L,0,203,203,203,,,,,,,None,1350.7987454402828,None,1349.816276820311,1350.8153958254893,1350.2991594789846,None,2,"[0.008028694710446871, 0.7919883671484058]","[0.35763450805734465, 1.2992293941183561]",1350.7987454402828,None,[1 3 3 3 3 3 3 3],space,0,1.2826917896341001,0.002759434854851861,None,1351.5980684821939,None,1,1352.880278993453,None,None,1353.3798486305295,None,,,,,,,,,,,,,,,,,,,,,,,,,,,,,,,,,,,,,,,,,,,,,,,23_SN,23,25,F,2022-12-14_15h04.43.222,dynamic target,2022.1.3,120.1279848360174,
1,5,4,2,L,0,204,204,204,,,,,,,None,1354.4123135943883,None,1353.4298343909336,None,1353.9127391787088,None,1,[0.00868134285792621],[0.5175025159824145],1354.4123135943883,None,[1 2 1 1 2 0 2 1],space,0,1.4602127272928556,0.0026654663497538422,None,1354.4289492268604,None,1,1355.8943508572302,None,None,1356.3939067037068,None,,,,,,,,,,,,,,,,,,,,,,,,,,,,,,,,,,,,,,,,,,,,,,,23_SN,23,25,F,2022-12-14_15h04.43.222,dynamic target,2022.1.3,120.1279848360174,
1,6,4,2,L,0,205,205,205,,,,,,,None,1357.4263874145063,None,1356.4355651868818,None,1356.9267805748818,None,1,[0.008664345142278762],[0.5089796046650008],1357.4263874145063,None,[2 0 3 2 2 3 1 0],space,0,1.5901243455841723,0.0028508376667559787,None,1357.4346909270043,None,1,1359.0249904909006,None,None,1359.5245412059912,None,,,,,,,,,,,,,,,,,,,,,,,,,,,,,,,,,,,,,,,,,,,,,,,23_SN,23,25,F,2022-12-14_15h04.43.222,dynamic target,2022.1.3,120.1279848360174,
1,7,1,2,L,0,206,206,206,,,,,,,None,1360.5570154704874,None,1359.5745503783437,None,1360.057435923422,None,1,[0.008605654915754712],[0.51745440923969],1360.5570154704874,None,[2 1 3 1 3 0 2 1],space,0,2.626169124623175,0.002657448559148179,None,1360.5736494994012,None,1,1363.2047236973176,None,None,1363.7042910894124,None,,,,,,,,,,,,,,,,,,,,,,,,,,,,,,,,,,,,,,,,,,,,,,,23_SN,23,25,F,2022-12-14_15h04.43.222,dynamic target,2022.1.3,120.1279848360174,
1,8,4,2,L,0,207,207,207,,,,,,,None,1364.7367307170534,None,1363.7459149357328,None,1364.2371809961687,None,1,[0.008639650347504357],[0.517666720332727],1364.7367307170534,None,[1 3 1 1 1 0 3 2],space,0,2.367043756526982,0.0025307674695795868,None,1364.7533772537208,None,1,1367.118014500014,None,None,1367.6175908720343,None,,,,,,,,,,,,,,,,,,,,,,,,,,,,,,,,,,,,,,,,,,,,,,,23_SN,23,25,F,2022-12-14_15h04.43.222,dynamic target,2022.1.3,120.1279848360174,
1,1,1,2,L,0,208,208,208,,,,,,,None,1368.6500256890008,None,1367.6759446400429,None,1368.1504708367302,None,1,[0.009451371458908397],[0.5175846181573434],1368.6500256890008,None,[3 2 2 2 1 1 3 0],space,0,1.9729164352961561,0.0026927268372674007,None,1368.6666757534958,None,1,1370.6399870945643,None,None,1371.1395637872965,None,,,,,,,,,,,,,,,,,,,,,,,,,,,,,,,,,,,,,,,,,,,,,,,23_SN,23,25,F,2022-12-14_15h04.43.222,dynamic target,2022.1.3,120.1279848360174,
1,5,1,0,L,0,209,209,209,,,,,,,None,1372.1720194825893,None,1371.181195651407,None,1371.6724177743513,None,1,[0.008690322783422744],[0.5093753628048034],1372.1720194825893,None,[2 1 0 1 2 1 2 3],space,0,0.906569539496104,0.0022212807552932645,None,1372.1803322957244,None,1,1373.0878826811236,None,None,1373.587459053144,None,,,,,,,,,,,,,,,,,,,,,,,,,,,,,,,,,,,,,,,,,,,,,,,23_SN,23,25,F,2022-12-14_15h04.43.222,dynamic target,2022.1.3,120.1279848360174,
1,6,1,2,L,0,210,210,210,,,,,,,None,1374.6115733278257,None,1373.6374627733985,None,1374.112005005667,None,1,[0.0086245769011839],[0.5175628097672416],1374.6115733278257,None,[0 1 0 3 1 2 2 3],space,0,1.387074121502792,0.0024749636472733982,None,1374.628221468051,None,1,1376.0187074295413,None,None,1376.518240505493,None,,,,,,,,,,,,,,,,,,,,,,,,,,,,,,,,,,,,,,,,,,,,,,,23_SN,23,25,F,2022-12-14_15h04.43.222,dynamic target,2022.1.3,120.1279848360174,
1,7,4,2,L,0,211,211,211,,,,,,,None,1377.550712204296,None,1376.5598723696035,None,1377.0511265637097,None,1,[0.008641895328764804],[0.5177683859160425],1377.550712204296,None,[2 1 0 1 2 2 3 0],space,0,1.6480657105198588,0.0023861265285631816,None,1377.5673459124982,None,1,1379.2159412276715,None,None,1379.7155047712267,None,,,,,,,,,,,,,,,,,,,,,,,,,,,,,,,,,,,,,,,,,,,,,,,23_SN,23,25,F,2022-12-14_15h04.43.222,dynamic target,2022.1.3,120.1279848360174,
1,8,2,2,L,0,212,212,212,,,,,,,None,1380.7479443988677,None,1379.7654956630167,None,1380.2483840944997,None,1,[0.008646385291285696],[0.5174598613371018],1380.7479443988677,None,[0 3 2 1 0 0 1 2],space,0,4.1786051538801985,0.00272800511584137,None,1380.7645935012279,None,1,1384.9443424225146,None,None,1385.4439178324,None,,,,,,,,,,,,,,,,,,,,,,,,,,,,,,,,,,,,,,,,,,,,,,,23_SN,23,25,F,2022-12-14_15h04.43.222,dynamic target,2022.1.3,120.1279848360174,
1,1,4,2,L,0,213,213,213,,,,,,,None,1386.4763616292921,None,1385.4939048756505,1386.492984754011,1385.9767904207288,None,1,[0.09983816891599417],[0.6000629877621577],1386.4763616292921,None,[2 3 1 3 2 2 3 3],space,0,2.238620560866366,0.0025554622643539915,None,1386.5762761275741,None,1,1388.816023458131,None,None,1389.3155780217608,None,,,,,,,,,,,,,,,,,,,,,,,,,,,,,,,,,,,,,,,,,,,,,,,23_SN,23,25,F,2022-12-14_15h04.43.222,dynamic target,2022.1.3,120.1279848360174,
