tar_letter,tar_pos,tar_ori,tar_pos_type,block,trials.thisRepN,trials.thisTrialN,trials.thisN,trials.thisIndex,instructions_key.keys,instructions_key.rt,instructions_key.started,instructions_key.stopped,instruction_text.started,instruction_text.stopped,fix_key.keys,fix_key.started,fix_key.stopped,fixcross.started,fixcross.stopped,roi.started,roi.stopped,roi.numLooks,roi.timesOn,roi.timesOff,RedFixCross.started,RedFixCross.stopped,distori,search_resp.keys,search_resp.corr,search_resp.rt,search_resp.started,search_resp.stopped,fixcross_shape.started,fixcross_shape.stopped,correct,feedback_text.started,feedback_text.stopped,break_key.keys,break_key.started,break_key.stopped,break_key.rt,text_q1.started,text_q1.stopped,key_resp1.keys,key_resp1.rt,key_resp1.started,key_resp1.stopped,text_q2.started,text_q2.stopped,key_resp_2.keys,key_resp_2.rt,key_resp_2.started,key_resp_2.stopped,image.started,image.stopped,text_q1_2.started,text_q1_2.stopped,slider.response,slider.rt,slider.started,slider.stopped,mouse.x,mouse.y,mouse.leftButton,mouse.midButton,mouse.rightButton,mouse.time,mouse.started,mouse.stopped,key_resp_3.keys,key_resp_3.rt,key_resp_3.started,key_resp_3.stopped,text_q4.started,text_q4.stopped,key_resp1_3.keys,key_resp1_3.rt,key_resp1_3.started,key_resp1_3.stopped,finish_text.started,finish_text.stopped,key_resp.keys,key_resp.rt,key_resp.started,key_resp.stopped,participant,group,age,gender,date,expName,psychopyVersion,frameRate,
,,,,,,,,,space,10.96788511117586,50.77199390117573,None,,,,,,,,,,,,,,,,,,,,,,,,,,,,,,,,,,,,,,,,,,,,,,,,,,,,,,,,,,,,,,,,,,,,,,,,,,24_BJR,24,22,F,2022-12-17_10h10.39.568,dynamic target,2022.1.3,120.12552011101863,
0,6,4,0,T,0,0,0,0,,,,,50.77199390117573,None,None,107.10844592232536,None,106.16856244655992,None,106.60882757992522,None,1,[0.009069659888609749],[0.5175883216622879],107.10844592232536,None,[2 0 1 0 2 0 2 3],space,0,2.5391014571538335,0.006842767973239461,None,107.13341146088908,None,1,109.68127196535704,None,None,110.18084325803457,None,,,,,,,,,,,,,,,,,,,,,,,,,,,,,,,,,,,,,,,,,,,,,,24_BJR,24,22,F,2022-12-17_10h10.39.568,dynamic target,2022.1.3,120.12552011101863,
0,7,2,2,T,0,1,1,1,,,,,,,None,111.21334884338512,None,110.23916814037818,None,110.7137298595436,None,1,[0.008667796886243195],[0.5168840190661967],111.21334884338512,None,[2 1 1 0 2 0 3 1],space,0,2.3112108177715527,0.0032140380722012196,None,111.23000194356734,None,1,113.54470846170182,None,None,114.04432625887674,None,,,,,,,,,,,,,,,,,,,,,,,,,,,,,,,,,,,,,,,,,,,,,,24_BJR,24,22,F,2022-12-17_10h10.39.568,dynamic target,2022.1.3,120.12552011101863,
0,8,1,2,T,0,2,2,2,,,,,,,None,115.07676994513758,None,114.0942604469949,None,114.57720003155896,None,1,[0.008745732009629137],[0.5171540658722051],115.07676994513758,None,[2 1 1 1 1 2 3 2],space,0,2.25552921899191,0.0026229498733982837,None,115.09342368676118,None,1,117.34990946055427,None,None,117.84948588476257,None,,,,,,,,,,,,,,,,,,,,,,,,,,,,,,,,,,,,,,,,,,,,,,24_BJR,24,22,F,2022-12-17_10h10.39.568,dynamic target,2022.1.3,120.12552011101863,
0,1,3,2,T,0,3,3,3,,,,,,,None,118.881947531381,None,117.89944989990317,None,118.38237890068501,None,1,[0.008774276149438265],[0.5172676009901807],118.881947531381,None,[3 0 1 1 3 0 3 0],space,0,2.689989628911462,0.002736484991260113,None,118.8986253270549,None,1,121.58801569478692,None,None,122.08761424872151,None,,,,,,,,,,,,,,,,,,,,,,,,,,,,,,,,,,,,,,,,,,,,,,24_BJR,24,22,F,2022-12-17_10h10.39.568,dynamic target,2022.1.3,120.12552011101863,
0,2,1,2,T,0,4,4,4,,,,,,,None,123.1200891411037,None,122.1375827539515,None,122.61219610914509,None,1,[0.008683832919928136],[0.5166303290145606],123.1200891411037,None,[0 2 1 0 0 3 1 2],space,0,1.91544407406775,0.0017926040529800957,None,123.12840693552039,None,1,125.04352211593539,None,None,125.54306582663517,None,,,,,,,,,,,,,,,,,,,,,,,,,,,,,,,,,,,,,,,,,,,,,,24_BJR,24,22,F,2022-12-17_10h10.39.568,dynamic target,2022.1.3,120.12552011101863,
0,3,4,2,T,0,5,5,5,,,,,,,None,126.57557397775099,None,125.59305966879822,None,126.07596172904368,None,1,[0.008660099590201753],[0.5175588153605304],126.57557397775099,None,[1 0 0 1 2 1 1 0],space,0,2.643806493558941,0.0019779806016231305,None,126.59222002207844,None,1,129.2400183708802,None,None,129.73959511580907,None,,,,,,,,,,,,,,,,,,,,,,,,,,,,,,,,,,,,,,,,,,,,,,24_BJR,24,22,F,2022-12-17_10h10.39.568,dynamic target,2022.1.3,120.12552011101863,
0,4,4,2,T,0,6,6,6,,,,,,,None,130.7720578208057,None,129.7895543201396,None,130.26415805371312,None,1,[0.008692492378031602],[0.5164215398568786],130.7720578208057,None,[0 3 3 2 0 1 1 0],space,0,2.2164352933772307,0.002585746275258316,None,130.78037208729506,None,1,132.99522511063265,None,None,133.49480602493034,None,,,,,,,,,,,,,,,,,,,,,,,,,,,,,,,,,,,,,,,,,,,,,,24_BJR,24,22,F,2022-12-17_10h10.39.568,dynamic target,2022.1.3,120.12552011101863,
0,5,4,2,T,0,7,7,7,,,,,,,None,134.52725291839783,None,133.55312353069849,None,134.02769358860144,None,1,[0.007913782586115303],[0.5165459794777689],134.52725291839783,None,[1 3 3 3 3 1 2 3],space,0,1.955930248120353,0.002350337301891159,None,134.54392365821695,None,1,136.5006334233276,None,None,137.00020696104983,None,,,,,,,,,,,,,,,,,,,,,,,,,,,,,,,,,,,,,,,,,,,,,,24_BJR,24,22,F,2022-12-17_10h10.39.568,dynamic target,2022.1.3,120.12552011101863,
0,6,4,2,T,0,8,8,8,,,,,,,None,138.03269073739466,None,137.05855140735446,None,137.5331019012964,None,1,[0.008714301383747625],[0.5171101271400858],138.03269073739466,None,[2 2 3 0 1 2 0 0],space,0,2.7706165608524316,0.002622949873284597,None,138.04934896910754,None,1,140.82203626837656,None,None,141.3216184655569,None,,,,,,,,,,,,,,,,,,,,,,,,,,,,,,,,,,,,,,,,,,,,,,24_BJR,24,22,F,2022-12-17_10h10.39.568,dynamic target,2022.1.3,120.12552011101863,
0,7,2,2,T,0,9,9,9,,,,,,,None,142.34580199090567,None,141.35493354988398,142.3540961482089,141.8462022503046,None,1,[0.8753086134667001],[1.3828586988105371],142.34580199090567,None,[3 3 1 3 2 3 1 1],space,0,3.256054880173565,0.0029061462266781746,None,143.22840732038526,None,1,146.4840043771958,None,None,146.9835891401415,None,,,,,,,,,,,,,,,,,,,,,,,,,,,,,,,,,,,,,,,,,,,,,,24_BJR,24,22,F,2022-12-17_10h10.39.568,dynamic target,2022.1.3,120.12552011101863,
0,8,3,2,T,0,10,10,10,,,,,,,None,148.02441101252168,None,147.03354962735466,None,147.5248135169652,None,1,[0.008676135623886694],[0.5175892838243499],148.02441101252168,None,[1 3 3 2 0 1 0 1],space,0,1.8829043961097796,0.0025491841186067177,None,148.04106282982116,None,1,149.92282177744687,None,None,150.4223930701243,None,,,,,,,,,,,,,,,,,,,,,,,,,,,,,,,,,,,,,,,,,,,,,,24_BJR,24,22,F,2022-12-17_10h10.39.568,dynamic target,2022.1.3,120.12552011101863,
0,7,3,1,T,0,11,11,11,,,,,,,None,151.4548883924133,None,150.48069004976946,None,150.95528127523676,None,1,[0.00863027256764326],[0.5174090388064769],151.4548883924133,None,[2 1 3 3 2 3 1 2],space,0,2.083801900838921,0.0025017174590402647,None,151.47151840070717,None,1,153.5531190406091,None,None,154.05270508643744,None,,,,,,,,,,,,,,,,,,,,,,,,,,,,,,,,,,,,,,,,,,,,,,24_BJR,24,22,F,2022-12-17_10h10.39.568,dynamic target,2022.1.3,120.12552011101863,
0,8,2,2,T,0,12,12,12,,,,,,,None,155.08518341053082,None,154.1110665309377,None,154.58563947532673,None,1,[0.008656892383555714],[0.5174792766338214],155.08518341053082,None,[0 2 3 3 3 0 2 3],space,0,1.7498489351669377,0.0025764453756664807,None,155.10182720981356,None,1,156.85039086228323,None,None,157.34993200721752,None,,,,,,,,,,,,,,,,,,,,,,,,,,,,,,,,,,,,,,,,,,,,,,24_BJR,24,22,F,2022-12-17_10h10.39.568,dynamic target,2022.1.3,120.12552011101863,
0,1,2,2,T,0,13,13,13,,,,,,,None,158.3824388754507,None,157.40825849316457,None,157.88284907719049,None,1,[0.008671324813690262],[0.5170969775925869],158.3824388754507,None,[3 3 1 3 1 3 1 3],space,0,1.9727318419737685,0.002843284975028837,None,158.39911827472804,None,1,160.37244714362964,None,None,160.87202998225135,None,,,,,,,,,,,,,,,,,,,,,,,,,,,,,,,,,,,,,,,,,,,,,,24_BJR,24,22,F,2022-12-17_10h10.39.568,dynamic target,2022.1.3,120.12552011101863,
0,2,2,2,T,0,14,14,14,,,,,,,None,161.89615321211375,None,160.90533865216503,161.90447976220491,161.39659612736205,None,1,[0.01717747848124418],[0.5252124934813764],161.89615321211375,None,[3 0 0 1 2 1 1 0],space,0,2.7857609909927987,0.0023609210841186723,None,161.9211383146386,None,1,164.71047133751426,None,None,165.21006989144897,None,,,,,,,,,,,,,,,,,,,,,,,,,,,,,,,,,,,,,,,,,,,,,,24_BJR,24,22,F,2022-12-17_10h10.39.568,dynamic target,2022.1.3,120.12552011101863,
0,3,4,2,T,0,15,15,15,,,,,,,None,166.24256328941385,None,165.26839990532335,None,165.7429786226844,None,1,[0.008608142841239896],[0.5172259073026453],166.24256328941385,None,[3 3 1 0 0 3 0 3],space,0,2.8636563449689447,0.0025142255652781387,None,166.25921959680284,None,1,169.1235002299568,None,None,169.6230898037126,None,,,,,,,,,,,,,,,,,,,,,,,,,,,,,,,,,,,,,,,,,,,,,,24_BJR,24,22,F,2022-12-17_10h10.39.568,dynamic target,2022.1.3,120.12552011101863,
0,4,1,2,T,0,16,16,16,,,,,,,None,170.64722297591584,None,169.6647606237119,None,170.14764793080644,None,1,[0.00909114817363843],[0.5177342495682069],170.64722297591584,None,[3 3 3 0 1 3 1 0],space,0,2.6826521813732143,0.002128719317397554,None,170.66388730132167,None,1,173.34497645589545,None,None,173.8445737269474,None,,,,,,,,,,,,,,,,,,,,,,,,,,,,,,,,,,,,,,,,,,,,,,24_BJR,24,22,F,2022-12-17_10h10.39.568,dynamic target,2022.1.3,120.12552011101863,
0,5,3,2,T,0,17,17,17,,,,,,,None,174.8770494852754,None,173.9029127210007,None,174.3774702707973,None,1,[0.008657213104129369],[0.5171903073080557],174.8770494852754,None,[3 3 0 2 0 3 2 1],space,0,2.293599724941487,0.002529620157588397,None,174.89370418906105,None,1,177.1917839061084,None,None,177.69138823301515,None,,,,,,,,,,,,,,,,,,,,,,,,,,,,,,,,,,,,,,,,,,,,,,24_BJR,24,22,F,2022-12-17_10h10.39.568,dynamic target,2022.1.3,120.12552011101863,
0,6,3,2,T,0,18,18,18,,,,,,,None,178.7154947854026,None,177.7246799047332,None,178.21593930425433,None,1,[0.009540477835344063],[0.5173997379071125],178.7154947854026,None,[3 1 1 0 2 2 3 1],space,0,1.3502021127710577,0.0017470617175376901,None,178.73215494143972,None,1,180.0810368129603,None,None,180.58063889482221,None,,,,,,,,,,,,,,,,,,,,,,,,,,,,,,,,,,,,,,,,,,,,,,24_BJR,24,22,F,2022-12-17_10h10.39.568,dynamic target,2022.1.3,120.12552011101863,
0,7,1,2,T,0,19,19,19,,,,,,,None,181.61311304954688,None,180.63058815681188,181.6297661497291,181.11352838281732,None,1,[1.0498268429090558],[1.5498460861493868],181.61311304954688,None,[2 2 0 2 3 0 3 2],space,0,1.6447522988211176,0.002404218374863376,None,182.6622474565247,None,1,184.31087198177795,None,None,184.8104407086901,None,,,,,,,,,,,,,,,,,,,,,,,,,,,,,,,,,,,,,,,,,,,,,,24_BJR,24,22,F,2022-12-17_10h10.39.568,dynamic target,2022.1.3,120.12552011101863,
0,8,2,2,T,0,20,20,20,,,,,,,None,185.85126267728643,None,184.86039638509317,None,185.34334462911545,None,1,[0.00874060047885905],[0.516472213723091],185.85126267728643,None,[3 2 3 1 0 0 2 2],space,0,1.567625070854774,0.0028157029972817327,None,185.859552248284,None,1,187.42495072126871,None,None,187.9245229761083,None,,,,,,,,,,,,,,,,,,,,,,,,,,,,,,,,,,,,,,,,,,,,,,24_BJR,24,22,F,2022-12-17_10h10.39.568,dynamic target,2022.1.3,120.12552011101863,
0,7,2,1,T,0,21,21,21,,,,,,,None,188.96532666362626,None,187.9828391989937,None,188.4574301037403,None,1,[0.008642139232620139],[0.5168234028592451],188.96532666362626,None,[0 0 0 1 2 0 2 2],space,0,1.7972629964591533,0.002738730035844128,None,188.97364670308775,None,1,190.77215778943923,None,None,191.27174447670896,None,,,,,,,,,,,,,,,,,,,,,,,,,,,,,,,,,,,,,,,,,,,,,,24_BJR,24,22,F,2022-12-17_10h10.39.568,dynamic target,2022.1.3,120.12552011101863,
0,8,4,2,T,0,22,22,22,,,,,,,None,192.30421295467775,None,191.33007673562804,None,191.80465032145833,None,1,[0.008732903182703922],[0.5087855013729268],192.30421295467775,None,[0 0 0 2 0 1 1 1],space,0,1.514272545596441,0.0026810003149648765,None,192.31255287882084,None,1,193.82796831792916,None,None,194.32754025204795,None,,,,,,,,,,,,,,,,,,,,,,,,,,,,,,,,,,,,,,,,,,,,,,24_BJR,24,22,F,2022-12-17_10h10.39.568,dynamic target,2022.1.3,120.12552011101863,
0,1,1,2,T,0,23,23,23,,,,,,,None,195.36001312388998,None,194.37750202214386,None,194.8604335886912,None,1,[0.008856380641532269],[0.5174379036670871],195.36001312388998,None,[2 1 2 2 1 3 3 2],space,0,1.937993944528671,0.002662719236582234,None,195.37667584569238,None,1,197.3167276998106,None,None,197.8163041240189,None,,,,,,,,,,,,,,,,,,,,,,,,,,,,,,,,,,,,,,,,,,,,,,24_BJR,24,22,F,2022-12-17_10h10.39.568,dynamic target,2022.1.3,120.12552011101863,
0,2,3,2,T,0,24,24,24,,,,,,,None,198.84044852144564,None,197.84961343537384,None,198.34088021147045,None,1,[0.009391984164153655],[0.5176181486848463],198.84044852144564,None,[1 3 1 2 1 0 2 1],space,0,2.2811410097100406,0.0023644490113383654,None,198.8571073946,None,1,201.13852663488967,None,None,201.6381155672042,None,,,,,,,,,,,,,,,,,,,,,,,,,,,,,,,,,,,,,,,,,,,,,,24_BJR,24,22,F,2022-12-17_10h10.39.568,dynamic target,2022.1.3,120.12552011101863,
0,1,4,1,T,0,25,25,25,,,,,,,None,202.6623051862457,None,201.6797604088291,None,202.16269871051054,None,1,[0.00872103651784073],[0.5170148731003792],202.6623051862457,None,[1 0 1 1 3 3 3 1],space,0,3.5476646991011194,0.0027384093151567868,None,202.6789367981429,None,1,206.22598748291364,None,None,206.7255533233397,None,,,,,,,,,,,,,,,,,,,,,,,,,,,,,,,,,,,,,,,,,,,,,,24_BJR,24,22,F,2022-12-17_10h10.39.568,dynamic target,2022.1.3,120.12552011101863,
0,2,4,2,T,0,26,26,26,,,,,,,None,207.758024912299,None,206.7755487691062,None,207.25844441493814,None,1,[0.008643101394568475],[0.5178182783843113],207.758024912299,None,[1 0 1 0 1 3 1 3],space,0,2.0511518949697347,0.0019654724952715696,None,207.7746629386096,None,1,209.8229920159796,None,None,210.32253380235525,None,,,,,,,,,,,,,,,,,,,,,,,,,,,,,,,,,,,,,,,,,,,,,,24_BJR,24,22,F,2022-12-17_10h10.39.568,dynamic target,2022.1.3,120.12552011101863,
0,3,3,2,T,0,27,27,27,,,,,,,None,211.35504067058844,None,210.38092347027475,None,210.85547877502665,None,1,[0.008676456344460348],[0.5177185342552093],211.35504067058844,None,[1 1 1 1 2 1 1 3],space,0,1.926209704870871,0.0021344922894286356,None,211.37169665725673,None,1,213.30343158290407,None,None,213.8030137800844,None,,,,,,,,,,,,,,,,,,,,,,,,,,,,,,,,,,,,,,,,,,,,,,24_BJR,24,22,F,2022-12-17_10h10.39.568,dynamic target,2022.1.3,120.12552011101863,
0,4,3,2,T,0,28,28,28,,,,,,,None,214.83548665192643,None,213.86135277413769,None,214.33589332573877,None,1,[0.00887626532323793],[0.517187420822097],214.83548665192643,None,[3 3 1 1 1 0 2 3],space,0,2.446377262178771,0.0028442471370908606,None,214.85215065661146,None,1,217.30009031494137,None,None,217.79965551392607,None,,,,,,,,,,,,,,,,,,,,,,,,,,,,,,,,,,,,,,,,,,,,,,24_BJR,24,22,F,2022-12-17_10h10.39.568,dynamic target,2022.1.3,120.12552011101863,
0,5,1,2,T,0,29,29,29,,,,,,,None,218.8321566091871,None,217.85799386653787,None,218.33255590642398,None,1,[0.008566128433244558],[0.5171396334419569],218.8321566091871,None,[0 3 1 2 0 3 0 3],space,0,1.9053654269445133,0.002671699415373041,None,218.84879367333576,None,1,220.75557300276012,None,None,221.25514397471696,None,,,,,,,,,,,,,,,,,,,,,,,,,,,,,,,,,,,,,,,,,,,,,,24_BJR,24,22,F,2022-12-17_10h10.39.568,dynamic target,2022.1.3,120.12552011101863,
0,6,1,2,T,0,30,30,30,,,,,,,None,222.28759952764256,None,221.31345410390975,None,221.78802480325396,None,1,[0.00862866896432024],[0.5171181451569282],222.28759952764256,None,[2 0 3 3 1 0 0 2],space,0,1.4273338308267967,0.002966441713169843,None,222.30426738097583,None,1,223.72808884475774,None,None,224.22767392842414,None,,,,,,,,,,,,,,,,,,,,,,,,,,,,,,,,,,,,,,,,,,,,,,24_BJR,24,22,F,2022-12-17_10h10.39.568,dynamic target,2022.1.3,120.12552011101863,
0,7,1,2,T,0,31,31,31,,,,,,,None,225.2684582764856,None,224.28594300537077,None,224.7688787412868,None,1,[0.008581523025441129],[0.517638674807813],225.2684582764856,None,[0 0 3 1 3 3 3 3],space,0,1.5959235386438877,0.0018791986344695033,None,225.28511073522657,None,1,226.88379039236327,None,None,227.38337162738165,None,,,,,,,,,,,,,,,,,,,,,,,,,,,,,,,,,,,,,,,,,,,,,,24_BJR,24,22,F,2022-12-17_10h10.39.568,dynamic target,2022.1.3,120.12552011101863,
0,8,2,2,T,0,32,32,32,,,,,,,None,228.415863742464,None,227.4333366046843,None,227.9162710577176,None,1,[0.008618726623581097],[0.51763707120449],228.415863742464,None,[2 3 1 2 3 1 1 0],space,0,1.6487898513634036,0.0022663084862415417,None,228.43254250029997,None,1,230.08110769222878,None,None,230.58072452724176,None,,,,,,,,,,,,,,,,,,,,,,,,,,,,,,,,,,,,,,,,,,,,,,24_BJR,24,22,F,2022-12-17_10h10.39.568,dynamic target,2022.1.3,120.12552011101863,
0,1,2,2,T,0,33,33,33,,,,,,,None,231.60489265799822,None,230.61401748184255,None,231.10528137145286,None,1,[0.008677097785948718],[0.5173157090910081],231.60489265799822,None,[0 0 1 2 0 2 0 1],space,0,1.5317976852862785,0.002526412951056045,None,231.6214918771076,None,1,233.15355271910187,None,None,233.65315768744998,None,,,,,,,,,,,,,,,,,,,,,,,,,,,,,,,,,,,,,,,,,,,,,,24_BJR,24,22,F,2022-12-17_10h10.39.568,dynamic target,2022.1.3,120.12552011101863,
0,5,2,0,T,0,34,34,34,,,,,,,None,234.69393497965677,None,233.70312041970794,None,234.19436474535735,None,1,[0.00864245995330748],[0.5176726711990796],234.69393497965677,None,[0 1 1 2 0 3 0 2],space,0,2.2991010466313355,0.0024096706263208034,None,234.7106188690235,None,1,237.00870820769103,None,None,237.50829681928488,None,,,,,,,,,,,,,,,,,,,,,,,,,,,,,,,,,,,,,,,,,,,,,,24_BJR,24,22,F,2022-12-17_10h10.39.568,dynamic target,2022.1.3,120.12552011101863,
0,6,4,2,T,0,35,35,35,,,,,,,None,238.54076423887534,None,237.57491489676966,None,238.04118855232457,None,1,[0.008609746444562916],[0.5175273847344215],238.54076423887534,None,[3 2 2 0 0 2 0 2],space,0,2.1640343463533327,0.002452647196378166,None,238.55742503635372,None,1,240.72228476275325,None,None,241.22187946803982,None,,,,,,,,,,,,,,,,,,,,,,,,,,,,,,,,,,,,,,,,,,,,,,24_BJR,24,22,F,2022-12-17_10h10.39.568,dynamic target,2022.1.3,120.12552011101863,
0,5,1,1,T,0,36,36,36,,,,,,,None,242.24605754113725,None,241.25517883705413,None,241.74643599153035,None,1,[0.009464467035968482],[0.5175392513995121],242.24605754113725,None,[3 1 2 3 1 2 3 3],space,0,2.602324481819437,0.002416085039612881,None,242.26269652961003,None,1,244.86884224327434,None,None,245.36842219540998,None,,,,,,,,,,,,,,,,,,,,,,,,,,,,,,,,,,,,,,,,,,,,,,24_BJR,24,22,F,2022-12-17_10h10.39.568,dynamic target,2022.1.3,120.12552011101863,
0,6,2,2,T,0,37,37,37,,,,,,,None,246.4009040474308,None,245.4183907006401,None,245.9013203428632,None,1,[0.008659458148940757],[0.5171085235367627],246.4009040474308,None,[0 3 1 2 3 0 1 2],space,0,1.8717144518574287,0.0027438615668415878,None,246.41755907193703,None,1,248.290959718125,None,None,248.79059547565774,None,,,,,,,,,,,,,,,,,,,,,,,,,,,,,,,,,,,,,,,,,,,,,,24_BJR,24,22,F,2022-12-17_10h10.39.568,dynamic target,2022.1.3,120.12552011101863,
0,7,3,2,T,0,38,38,38,,,,,,,None,249.8230292195775,None,248.8488725706212,None,249.32346283392633,None,1,[0.008630593288216915],[0.5174824838404675],249.8230292195775,None,[2 2 1 3 1 2 0 1],space,0,1.3291015790276788,0.002489530073489732,None,249.83970380804487,None,1,251.17193803163457,None,None,251.67151060719473,None,,,,,,,,,,,,,,,,,,,,,,,,,,,,,,,,,,,,,,,,,,,,,,24_BJR,24,22,F,2022-12-17_10h10.39.568,dynamic target,2022.1.3,120.12552011101863,
0,8,2,2,T,0,39,39,39,,,,,,,None,252.70397674390267,None,251.72984511115862,None,252.20438053122905,None,1,[0.008208204163111077],[0.5169978749049733],252.70397674390267,None,[2 2 3 2 3 1 1 2],space,0,1.583679706262842,0.0022028057931038347,None,252.72066640624155,None,1,254.30263811996122,None,None,254.80222416578957,None,,,,,,,,,,,,,,,,,,,,,,,,,,,,,,,,,,,,,,,,,,,,,,24_BJR,24,22,F,2022-12-17_10h10.39.568,dynamic target,2022.1.3,120.12552011101863,
0,1,4,2,T,0,40,40,40,,,,,,,None,255.8430374749278,None,254.85218593588536,None,255.3434498254959,None,1,[0.008682229316718804],[0.5087992923620277],255.8430374749278,None,[2 3 0 0 0 1 3 1],space,0,1.9095575668505944,0.0027833102096792572,None,255.85137130537817,None,1,257.75811631769045,None,None,258.25770011847436,None,,,,,,,,,,,,,,,,,,,,,,,,,,,,,,,,,,,,,,,,,,,,,,24_BJR,24,22,F,2022-12-17_10h10.39.568,dynamic target,2022.1.3,120.12552011101863,
0,8,3,1,T,0,41,41,41,,,,,,,None,259.2818310456329,None,258.2909799235275,None,258.782230984311,None,1,[0.008955804049946892],[0.517695121646284],259.2818310456329,None,[0 0 0 2 3 2 3 0],space,0,2.2697948744902305,0.0022695156926602067,None,259.2984950503179,None,1,261.5716217369078,None,None,262.07119014309916,None,,,,,,,,,,,,,,,,,,,,,,,,,,,,,,,,,,,,,,,,,,,,,,24_BJR,24,22,F,2022-12-17_10h10.39.568,dynamic target,2022.1.3,120.12552011101863,
0,1,2,2,T,0,42,42,42,,,,,,,None,263.0953258810679,None,262.1045065103091,None,262.595757250372,None,1,[0.00863444193646501],[0.5176325811150946],263.0953258810679,None,[3 2 1 3 1 1 3 0],space,0,1.656522106048783,0.0023606003633176442,None,263.11199790376975,None,1,264.7689143412814,None,None,265.26852989341165,None,,,,,,,,,,,,,,,,,,,,,,,,,,,,,,,,,,,,,,,,,,,,,,24_BJR,24,22,F,2022-12-17_10h10.39.568,dynamic target,2022.1.3,120.12552011101863,
0,2,3,2,T,0,43,43,43,,,,,,,None,266.3009953886782,None,265.318518604044,None,265.8014225886135,None,1,[0.008713018501111947],[0.5171601595650372],266.3009953886782,None,[3 2 2 0 3 1 1 0],space,0,1.8913114470896062,0.0027406543599681754,None,266.3176350185921,None,1,268.20773687306325,None,None,268.70734087924944,None,,,,,,,,,,,,,,,,,,,,,,,,,,,,,,,,,,,,,,,,,,,,,,24_BJR,24,22,F,2022-12-17_10h10.39.568,dynamic target,2022.1.3,120.12552011101863,
0,3,2,2,T,0,44,44,44,,,,,,,None,269.739810223164,None,268.7656198985368,None,269.2402310086858,None,1,[0.008596276176376705],[0.51717042262635],269.739810223164,None,[1 2 1 2 1 3 0 3],space,0,1.9082201616475913,0.0025591264595732355,None,269.7564761521729,None,1,271.6632057698931,None,None,272.1627860427496,None,,,,,,,,,,,,,,,,,,,,,,,,,,,,,,,,,,,,,,,,,,,,,,24_BJR,24,22,F,2022-12-17_10h10.39.568,dynamic target,2022.1.3,120.12552011101863,
0,4,3,2,T,0,45,45,45,,,,,,,None,273.1952566695469,None,272.2210990584282,None,272.6956524388562,None,1,[0.008652402294046624],[0.5173410460240575],273.1952566695469,None,[0 1 3 0 3 1 0 0],space,0,2.0207584797498157,0.002311209380195578,None,273.2119081661257,None,1,275.23524251935066,None,None,275.7348298480618,None,,,,,,,,,,,,,,,,,,,,,,,,,,,,,,,,,,,,,,,,,,,,,,24_BJR,24,22,F,2022-12-17_10h10.39.568,dynamic target,2022.1.3,120.12552011101863,
0,5,4,2,T,0,46,46,46,,,,,,,None,276.75896269954444,None,275.7681109359977,None,276.2593815607423,None,1,[0.008783577048916413],[0.5179363035915685],276.75896269954444,None,[2 2 3 0 2 3 1 3],space,0,1.7999410140718055,0.0018352599024638039,None,276.77563792945296,None,1,278.5741217545475,None,None,279.0737042724484,None,,,,,,,,,,,,,,,,,,,,,,,,,,,,,,,,,,,,,,,,,,,,,,24_BJR,24,22,F,2022-12-17_10h10.39.568,dynamic target,2022.1.3,120.12552011101863,
0,6,2,2,T,0,47,47,47,,,,,,,None,280.09783776537245,None,279.10703154416103,None,279.5982790770173,None,1,[0.008635083377612318],[0.517454901862493],280.09783776537245,None,[0 3 1 3 3 3 3 1],space,0,1.3891873140777307,0.0021450760718835227,None,280.1144921484373,None,1,281.5050170334749,None,None,282.0046094937168,None,,,,,,,,,,,,,,,,,,,,,,,,,,,,,,,,,,,,,,,,,,,,,,24_BJR,24,22,F,2022-12-17_10h10.39.568,dynamic target,2022.1.3,120.12552011101863,
0,7,3,2,T,0,48,48,48,,,,,,,None,283.03709968447504,None,282.0629013418312,None,282.53748454928166,None,1,[0.008731299579494589],[0.5171688190232544],283.03709968447504,None,[1 0 3 2 0 0 0 1],space,0,1.1865999321272511,0.0029587444171284005,None,283.0537454080819,None,1,284.2444064711168,None,None,284.7440018178448,None,,,,,,,,,,,,,,,,,,,,,,,,,,,,,,,,,,,,,,,,,,,,,,24_BJR,24,22,F,2022-12-17_10h10.39.568,dynamic target,2022.1.3,120.12552011101863,
0,8,1,2,T,0,49,49,49,,,,,,,None,285.77647148248013,None,284.79396198433744,None,285.276890343678,None,1,[0.008697944629602716],[0.5174298856502446],285.77647148248013,None,[2 3 1 2 2 0 2 2],space,0,3.4223857522964636,0.0016681644324307854,None,285.79313067635496,None,1,289.21526514940126,None,None,289.7148697970288,None,,,,,,,,,,,,,,,,,,,,,,,,,,,,,,,,,,,,,,,,,,,,,,24_BJR,24,22,F,2022-12-17_10h10.39.568,dynamic target,2022.1.3,120.12552011101863,
0,1,1,2,T,0,50,50,50,,,,,,,None,290.74736223283173,None,289.77322450639497,290.7723268092335,290.2477509462864,None,2,"[0.008662344635013142, 1.058505865019015]","[0.30000692756652825, 1.5660537053181542]",290.74736223283173,None,[3 2 3 3 0 1 1 3],space,0,1.6269500564704913,0.002966762433970871,None,291.8131183093659,None,1,293.43674746903287,None,None,293.93634474008473,None,,,,,,,,,,,,,,,,,,,,,,,,,,,,,,,,,,,,,,,,,,,,,,24_BJR,24,22,F,2022-12-17_10h10.39.568,dynamic target,2022.1.3,120.12552011101863,
0,2,2,2,T,0,51,51,51,,,,,,,None,294.96046508346114,None,293.9696598244119,None,294.46092114825694,None,1,[0.008388769901330306],[0.5174321306949423],294.96046508346114,None,[1 0 3 2 1 1 3 3],space,0,1.6625782745014703,0.002009731948191984,None,294.9771201079674,None,1,296.64244006853176,None,None,297.1420578657067,None,,,,,,,,,,,,,,,,,,,,,,,,,,,,,,,,,,,,,,,,,,,,,,24_BJR,24,22,F,2022-12-17_10h10.39.568,dynamic target,2022.1.3,120.12552011101863,
0,3,3,2,T,0,52,52,52,,,,,,,None,298.1744685177381,None,297.2003513174244,None,297.6748780780366,None,1,[0.008671324813576575],[0.5171534244307168],298.1744685177381,None,[2 1 3 1 1 0 1 3],space,0,2.416861980159524,0.002859321008600091,None,298.1911479170154,None,0,300.61413422416706,None,None,301.11369108441437,None,,,,,,,,,,,,,,,,,,,,,,,,,,,,,,,,,,,,,,,,,,,,,,24_BJR,24,22,F,2022-12-17_10h10.39.568,dynamic target,2022.1.3,120.12552011101863,
0,2,3,1,T,0,53,53,53,,,,,,,None,302.1461646939138,None,301.1720127595512,None,301.6382844907822,None,1,[0.009619054399991],[0.516628404690664],302.1461646939138,None,[0 2 1 2 2 0 2 0],space,0,2.101712546776639,0.0029241065844871628,None,302.1545132775151,None,1,304.2611230739923,None,None,304.76065652163044,None,,,,,,,,,,,,,,,,,,,,,,,,,,,,,,,,,,,,,,,,,,,,,,24_BJR,24,22,F,2022-12-17_10h10.39.568,dynamic target,2022.1.3,120.12552011101863,
0,3,2,2,T,0,54,54,54,,,,,,,None,305.79315954121546,None,304.81900481658306,None,305.2935723087206,None,1,[0.009055227458247828],[0.5177406639816127],305.79315954121546,None,[0 0 1 2 2 3 3 0],space,0,1.8214934432422751,0.0019766977188737656,None,305.8098010954535,None,1,307.6332828518995,None,None,308.1328820472755,None,,,,,,,,,,,,,,,,,,,,,,,,,,,,,,,,,,,,,,,,,,,,,,24_BJR,24,22,F,2022-12-17_10h10.39.568,dynamic target,2022.1.3,120.12552011101863,
0,4,4,2,T,0,55,55,55,,,,,,,None,309.165365182179,None,308.1911767818759,None,308.6657680073432,None,1,[0.009188967978616347],[0.5175767757179983],309.165365182179,None,[2 2 3 3 2 2 3 3],space,0,2.449536681520499,0.002282344519471735,None,309.1820080192998,None,1,311.6299797496969,None,None,312.129553287419,None,,,,,,,,,,,,,,,,,,,,,,,,,,,,,,,,,,,,,,,,,,,,,,24_BJR,24,22,F,2022-12-17_10h10.39.568,dynamic target,2022.1.3,120.12552011101863,
0,3,4,1,T,0,56,56,56,,,,,,,None,313.1620081989032,None,312.1795503367888,None,312.6624337952352,None,1,[0.008657533824589336],[0.5177884513616391],313.1620081989032,None,[2 2 2 1 3 2 0 2],space,0,2.388321047542263,0.002269836413233861,None,313.1786866360186,None,1,315.56834974461015,None,None,316.06795054358946,None,,,,,,,,,,,,,,,,,,,,,,,,,,,,,,,,,,,,,,,,,,,,,,24_BJR,24,22,F,2022-12-17_10h10.39.568,dynamic target,2022.1.3,120.12552011101863,
0,4,1,2,T,0,57,57,57,,,,,,,None,317.09209750678167,None,316.1012569684584,None,316.59250738780077,None,1,[0.008662344635013142],[0.5175655504945098],317.09209750678167,None,[0 2 2 2 2 0 3 3],space,0,2.1868465663238794,0.0024459120622850605,None,317.1087528520087,None,1,319.2985572701283,None,None,319.7981651249625,None,,,,,,,,,,,,,,,,,,,,,,,,,,,,,,,,,,,,,,,,,,,,,,24_BJR,24,22,F,2022-12-17_10h10.39.568,dynamic target,2022.1.3,120.12552011101863,
0,5,3,2,T,0,58,58,58,,,,,,,None,320.8306511463519,None,319.8564762163172,None,320.3310626309743,None,1,[0.008705962646445187],[0.5172031361350946],320.8306511463519,None,[0 3 1 0 3 2 2 2],space,0,2.384123134664037,0.0028856201040525775,None,320.84731034022695,None,1,323.2286411257552,None,None,323.7282470562653,None,,,,,,,,,,,,,,,,,,,,,,,,,,,,,,,,,,,,,,,,,,,,,,24_BJR,24,22,F,2022-12-17_10h10.39.568,dynamic target,2022.1.3,120.12552011101863,
0,6,3,2,T,0,59,59,59,,,,,,,None,324.7607196073867,None,323.78653698005576,None,324.26112403615423,None,1,[0.008630914009017943],[0.5171675361402777],324.7607196073867,None,[1 1 1 2 0 2 3 1],space,0,1.7339402276646751,0.002436290442119571,None,324.7773508985632,None,1,326.5092579229232,None,space,327.02549857632096,None,18.38645317034741,,,,,,,,,,,,,,,,,,,,,,,,,,,,,,,,,,,,,,,,,,,,,24_BJR,24,22,F,2022-12-17_10h10.39.568,dynamic target,2022.1.3,120.12552011101863,
0,7,4,2,T,0,60,60,60,,,,,,,None,346.46763062471894,None,345.48514325630265,None,345.96805557960977,None,1,[0.008848362624803485],[0.5175931324722569],346.46763062471894,None,[0 0 3 2 2 2 3 1],space,0,1.9782184105127953,0.002466117464564377,None,346.48432638075076,None,1,348.46599879793905,None,None,348.9655793915161,None,,,,,,,,,,,,,,,,,,,,,,,,,,,,,,,,,,,,,,,,,,,,,,24_BJR,24,22,F,2022-12-17_10h10.39.568,dynamic target,2022.1.3,120.12552011101863,
0,8,2,2,T,0,61,61,61,,,,,,,None,350.0063512314713,None,349.02386642882027,None,349.5067928638367,None,1,[0.008638932025860413],[0.5173545162922437],350.0063512314713,None,[0 3 2 3 3 3 1 3],space,0,1.144084558381678,0.0026623985161222663,None,350.0230290271453,None,1,351.1637535608014,None,None,351.66331811834476,None,,,,,,,,,,,,,,,,,,,,,,,,,,,,,,,,,,,,,,,,,,,,,,24_BJR,24,22,F,2022-12-17_10h10.39.568,dynamic target,2022.1.3,120.12552011101863,
0,7,2,1,T,0,62,62,62,,,,,,,None,352.68748143829123,None,351.7049619978076,None,352.187898375165,None,1,[0.008669079769106247],[0.517616224360836],352.68748143829123,None,[0 0 0 0 2 1 0 2],space,0,1.1662162090862012,0.002513904844818171,None,352.70413261414944,None,1,353.86980793321834,None,None,354.36939943129806,None,,,,,,,,,,,,,,,,,,,,,,,,,,,,,,,,,,,,,,,,,,,,,,24_BJR,24,22,F,2022-12-17_10h10.39.568,dynamic target,2022.1.3,120.12552011101863,
0,8,4,2,T,0,63,63,63,,,,,,,None,355.3935367728701,None,354.4027225336421,None,354.89399444126946,None,1,[0.008617123020030704],[0.5177720946073805],355.3935367728701,None,[1 3 0 1 3 2 2 2],space,0,1.0686404725030343,0.002045011222207904,None,355.41022483160566,None,1,356.4843135519237,None,None,356.98391916171323,None,,,,,,,,,,,,,,,,,,,,,,,,,,,,,,,,,,,,,,,,,,,,,,24_BJR,24,22,F,2022-12-17_10h10.39.568,dynamic target,2022.1.3,120.12552011101863,
0,1,3,2,T,0,64,64,64,,,,,,,None,358.03304513373735,None,357.05886378928915,None,357.5334511661084,None,1,[0.008721357238528071],[0.5171030712851916],358.03304513373735,None,[0 3 1 0 1 3 0 3],space,0,1.4525363819672066,0.002765349851870269,None,358.0496780285172,None,1,359.50681210707705,None,None,360.0063920592127,None,,,,,,,,,,,,,,,,,,,,,,,,,,,,,,,,,,,,,,,,,,,,,,24_BJR,24,22,F,2022-12-17_10h10.39.568,dynamic target,2022.1.3,120.12552011101863,
0,2,1,2,T,0,65,65,65,,,,,,,None,361.04719885772136,None,360.0647053956121,None,360.5476231711706,None,1,[0.008630914009017943],[0.5175540045504476],361.04719885772136,None,[2 0 3 1 3 0 0 0],space,0,2.101794009827586,0.0018150545004118612,None,361.06384618493155,None,1,363.1704316066374,None,None,363.67003208489615,None,,,,,,,,,,,,,,,,,,,,,,,,,,,,,,,,,,,,,,,,,,,,,,24_BJR,24,22,F,2022-12-17_10h10.39.568,dynamic target,2022.1.3,120.12552011101863,
0,3,2,2,T,0,66,66,66,,,,,,,None,364.71081322575094,None,363.7199749324724,None,364.21123272839,None,1,[0.008655609500920036],[0.5175209703211294],364.71081322575094,None,[3 3 2 1 0 1 3 3],space,0,2.086644448156335,0.0023965210789356206,None,364.7274807583634,None,1,366.81741340060773,None,None,367.3169753923858,None,,,,,,,,,,,,,,,,,,,,,,,,,,,,,,,,,,,,,,,,,,,,,,24_BJR,24,22,F,2022-12-17_10h10.39.568,dynamic target,2022.1.3,120.12552011101863,
0,4,3,2,T,0,67,67,67,,,,,,,None,368.34945820656856,None,367.3752402999636,None,367.8498706533529,None,1,[0.008692171657457948],[0.5173157090910081],368.34945820656856,None,[3 2 0 2 2 3 3 0],space,0,1.9687484912252557,0.0026463624824373255,None,368.36609398783446,None,1,370.3394732098815,None,None,370.8390538034585,None,,,,,,,,,,,,,,,,,,,,,,,,,,,,,,,,,,,,,,,,,,,,,,24_BJR,24,22,F,2022-12-17_10h10.39.568,dynamic target,2022.1.3,120.12552011101863,
0,3,4,1,T,0,68,68,68,,,,,,,None,371.8715401455687,None,370.8890117249065,None,371.3719545166772,None,1,[0.008661061752263777],[0.5171296911009904],371.8715401455687,None,[2 0 1 1 2 2 2 0],space,0,1.6940884391018471,0.00284136065124585,None,371.88817496467266,None,1,373.5867645634447,None,None,374.0863573444072,None,,,,,,,,,,,,,,,,,,,,,,,,,,,,,,,,,,,,,,,,,,,,,,24_BJR,24,22,F,2022-12-17_10h10.39.568,dynamic target,2022.1.3,120.12552011101863,
0,4,3,2,T,0,69,69,69,,,,,,,None,375.11885715678557,None,374.14466939792385,None,374.6192776215868,None,1,[0.008719432914631398],[0.5172101919897614],375.11885715678557,None,[2 1 2 2 3 1 2 1],space,0,2.0624989923513795,0.002633212934824769,None,375.1354842785935,None,1,377.2004311768718,None,None,377.69999541369435,None,,,,,,,,,,,,,,,,,,,,,,,,,,,,,,,,,,,,,,,,,,,,,,24_BJR,24,22,F,2022-12-17_10h10.39.568,dynamic target,2022.1.3,120.12552011101863,
0,5,2,2,T,0,70,70,70,,,,,,,None,378.72416739309904,None,377.74164185892266,None,378.22457631195596,None,1,[0.008704679763468448],[0.5175668333772592],378.72416739309904,None,[1 0 3 1 1 0 0 2],space,0,2.696371008125766,0.002384012972470373,None,378.7408086266165,None,1,381.4385710867749,None,None,381.9381526425139,None,,,,,,,,,,,,,,,,,,,,,,,,,,,,,,,,,,,,,,,,,,,,,,24_BJR,24,22,F,2022-12-17_10h10.39.568,dynamic target,2022.1.3,120.12552011101863,
0,6,4,2,T,0,71,71,71,,,,,,,None,382.97895248138394,None,381.9881025459448,None,382.47935328600795,None,1,[0.008609105003415607],[0.5089971770166812],382.97895248138394,None,[3 2 2 2 1 3 0 3],space,0,1.65012597368343,0.0025318652026271593,None,382.987310045164,None,1,384.63590602627744,None,None,385.13548309192703,None,,,,,,,,,,,,,,,,,,,,,,,,,,,,,,,,,,,,,,,,,,,,,,24_BJR,24,22,F,2022-12-17_10h10.39.568,dynamic target,2022.1.3,120.12552011101863,
0,7,4,2,T,0,72,72,72,,,,,,,None,386.15964416682857,None,385.16876321770076,None,385.6600691217194,None,1,[0.008627065360997221],[0.5179106459379454],386.15964416682857,None,[1 2 0 3 0 3 1 2],space,0,0.8442860992521446,0.0018330148579934757,None,386.17626070485437,None,1,387.0255970375673,None,None,387.52516608520006,None,,,,,,,,,,,,,,,,,,,,,,,,,,,,,,,,,,,,,,,,,,,,,,24_BJR,24,22,F,2022-12-17_10h10.39.568,dynamic target,2022.1.3,120.12552011101863,
0,5,1,0,T,0,73,73,73,,,,,,,None,388.55764601289695,None,387.5835050792533,388.58258781813095,388.0580251047314,None,8,"[0.8419536635601617, 0.8581545475944949, 0.8756655755748852, 0.8918193136705668, 0.916995565715979, 0.9336922839095223, 0.9500127967546632, 0.9752839821192083]","[0.8499825848673481, 0.8671530074939255, 0.8836348428371821, 0.9000304043197502, 0.9254539320033928, 0.9418466069996612, 0.9668583293403117, 1.483066269229539]",388.55764601289695,None,[1 1 1 0 1 0 0 1],space,0,2.632633868222797,0.0022707985754095716,None,389.54013722996126,None,1,392.1712869686702,None,None,392.67089578566635,None,,,,,,,,,,,,,,,,,,,,,,,,,,,,,,,,,,,,,,,,,,,,,,24_BJR,24,22,F,2022-12-17_10h10.39.568,dynamic target,2022.1.3,120.12552011101863,
0,6,3,2,T,0,74,74,74,,,,,,,None,393.70335037642997,None,392.7291792950431,None,393.20378463221994,None,1,[0.0088663229823851],[0.5171717055090994],393.70335037642997,None,[3 3 0 2 1 1 0 1],space,0,1.6694593365231185,0.0027188453543658397,None,393.72001758832164,None,1,395.39363812060253,None,None,395.89319915021866,None,,,,,,,,,,,,,,,,,,,,,,,,,,,,,,,,,,,,,,,,,,,,,,24_BJR,24,22,F,2022-12-17_10h10.39.568,dynamic target,2022.1.3,120.12552011101863,
0,7,1,2,T,0,75,75,75,,,,,,,None,396.9173538107069,None,395.9265206489591,None,396.4177697854187,None,1,[0.008714942825235994],[0.5177855648757941],396.9173538107069,None,[1 1 3 3 3 1 0 0],space,0,2.1510923050688007,0.0022419337149131024,None,396.9340091559337,None,1,399.0905497088178,None,None,399.59013383032226,None,,,,,,,,,,,,,,,,,,,,,,,,,,,,,,,,,,,,,,,,,,,,,,24_BJR,24,22,F,2022-12-17_10h10.39.568,dynamic target,2022.1.3,120.12552011101863,
0,8,1,2,T,0,76,76,76,,,,,,,None,400.6226147201809,None,399.64844973248694,None,400.1230281291274,None,1,[0.008815649116058921],[0.5169786316644149],400.6226147201809,None,[3 2 2 0 0 1 1 0],space,0,2.0458183101912937,0.002929558836058277,None,400.6392530672123,None,1,402.6875548833251,None,None,403.18715953095244,None,,,,,,,,,,,,,,,,,,,,,,,,,,,,,,,,,,,,,,,,,,,,,,24_BJR,24,22,F,2022-12-17_10h10.39.568,dynamic target,2022.1.3,120.12552011101863,
0,1,4,2,T,0,77,77,77,,,,,,,None,404.21129270315566,None,403.2204143197931,None,403.7116996976887,None,1,[0.008773313987603615],[0.5176954423668576],404.21129270315566,None,[1 1 2 3 3 3 0 2],space,0,1.6405617625183595,0.0021283985965965257,None,404.2279518970307,None,1,405.86823960913136,None,None,406.3678336729766,None,,,,,,,,,,,,,,,,,,,,,,,,,,,,,,,,,,,,,,,,,,,,,,24_BJR,24,22,F,2022-12-17_10h10.39.568,dynamic target,2022.1.3,120.12552011101863,
0,4,4,0,T,0,78,78,78,,,,,,,None,407.40030279238664,None,406.43444950541664,None,406.9007244438543,None,1,[0.008682229316718804],[0.5090106472848674],407.40030279238664,None,[3 2 0 1 1 3 3 0],space,0,2.1406858814185625,0.0024920958392158354,None,407.40862635977544,None,1,409.54851605752185,None,None,410.04809344389224,None,,,,,,,,,,,,,,,,,,,,,,,,,,,,,,,,,,,,,,,,,,,,,,24_BJR,24,22,F,2022-12-17_10h10.39.568,dynamic target,2022.1.3,120.12552011101863,
0,5,2,2,T,0,79,79,79,,,,,,,None,411.0805817103263,None,410.09808343740735,None,410.58098902558015,None,1,[0.007819811429044421],[0.5164327650804807],411.0805817103263,None,[3 1 2 2 2 3 2 0],space,0,2.08299368474502,0.002565861593666341,None,411.0972383384361,None,1,413.17882999815913,None,None,413.678423420563,None,,,,,,,,,,,,,,,,,,,,,,,,,,,,,,,,,,,,,,,,,,,,,,24_BJR,24,22,F,2022-12-17_10h10.39.568,dynamic target,2022.1.3,120.12552011101863,
0,6,1,2,T,0,80,80,80,,,,,,,None,414.71089019871226,None,413.72834574201613,None,414.2112943067592,None,1,[0.008659458148940757],[0.5174234712369525],414.71089019871226,None,[3 0 2 3 1 2 1 0],space,0,5.044917726543758,0.0025572021356765617,None,414.72753945024635,None,1,419.773343814485,None,None,420.2729272945481,None,,,,,,,,,,,,,,,,,,,,,,,,,,,,,,,,,,,,,,,,,,,,,,24_BJR,24,22,F,2022-12-17_10h10.39.568,dynamic target,2022.1.3,120.12552011101863,
0,7,3,2,T,0,81,81,81,,,,,,,None,421.30539439341794,None,420.33121946338304,421.3303836653114,420.8058180654258,None,2,"[0.008641818511932797, 0.5666662818018722]","[0.15853222825830926, 1.0669728907644185]",421.30539439341794,None,[1 1 0 3 3 1 3 1],space,0,1.2775899904278276,0.0026524561751557485,None,421.87160140321714,None,1,423.15386830824343,None,None,423.6534434495689,None,,,,,,,,,,,,,,,,,,,,,,,,,,,,,,,,,,,,,,,,,,,,,,24_BJR,24,22,F,2022-12-17_10h10.39.568,dynamic target,2022.1.3,120.12552011101863,
0,8,1,2,T,0,82,82,82,,,,,,,None,424.68588489078513,None,423.7200628099364,None,424.1863255609886,None,1,[0.009561966120372745],[0.5173811361082699],424.68588489078513,None,[0 2 2 3 1 1 3 2],space,0,1.48535508691009,0.0022579697485980432,None,424.70254889547016,None,1,426.19297666628825,None,None,426.69257522022286,None,,,,,,,,,,,,,,,,,,,,,,,,,,,,,,,,,,,,,,,,,,,,,,24_BJR,24,22,F,2022-12-17_10h10.39.568,dynamic target,2022.1.3,120.12552011101863,
0,1,2,2,T,0,83,83,83,,,,,,,None,427.7333849052176,None,426.75091357283475,None,427.2337979934433,None,1,[0.009098524749106218],[0.5173250099905999],427.7333849052176,None,[1 3 1 2 1 0 1 0],space,0,1.9255656977610442,0.0018625211596372537,None,427.75003640179636,None,1,429.6734476638386,None,None,430.17302537092957,None,,,,,,,,,,,,,,,,,,,,,,,,,,,,,,,,,,,,,,,,,,,,,,24_BJR,24,22,F,2022-12-17_10h10.39.568,dynamic target,2022.1.3,120.12552011101863,
0,2,2,2,T,0,84,84,84,,,,,,,None,431.20546905719027,None,430.22297559508127,None,430.7058965778464,None,1,[0.008320456398223541],[0.5170780550729432],431.20546905719027,None,[1 2 2 1 0 0 2 3],space,0,1.63752870712176,0.002284589564169437,None,431.2221596816911,None,1,432.86242494334476,None,None,433.36203536394424,None,,,,,,,,,,,,,,,,,,,,,,,,,,,,,,,,,,,,,,,,,,,,,,24_BJR,24,22,F,2022-12-17_10h10.39.568,dynamic target,2022.1.3,120.12552011101863,
0,3,1,2,T,0,85,85,85,,,,,,,None,434.39448363651064,None,433.41201830160446,None,433.8949014393303,None,1,[0.008575429332722706],[0.5089336743235435],434.39448363651064,None,[2 3 3 2 1 1 3 3],space,0,1.7055003220594926,0.0022108238094915578,None,434.40283863452544,None,1,436.1097422752822,None,None,436.6093376220102,None,,,,,,,,,,,,,,,,,,,,,,,,,,,,,,,,,,,,,,,,,,,,,,24_BJR,24,22,F,2022-12-17_10h10.39.568,dynamic target,2022.1.3,120.12552011101863,
0,4,4,2,T,0,86,86,86,,,,,,,None,437.6418165875449,None,436.6676487133649,None,437.1422242235193,None,1,[0.008642139232506452],[0.5174427144770561],437.6418165875449,None,[1 0 0 2 2 0 2 0],space,0,2.4660464195623035,0.002428913866651783,None,437.6584498030455,None,1,440.12308233092097,None,None,440.6226889028724,None,,,,,,,,,,,,,,,,,,,,,,,,,,,,,,,,,,,,,,,,,,,,,,24_BJR,24,22,F,2022-12-17_10h10.39.568,dynamic target,2022.1.3,120.12552011101863,
0,5,3,2,T,0,87,87,87,,,,,,,None,441.6467829471536,None,440.65596293495344,None,441.1472277867259,None,1,[0.00912546528547864],[0.5173166712529564],441.6467829471536,None,[0 1 2 3 1 3 3 3],space,0,2.3330220685244285,0.002479587733205335,None,441.66344053742534,None,1,443.99484377375336,None,None,444.494437516878,None,,,,,,,,,,,,,,,,,,,,,,,,,,,,,,,,,,,,,,,,,,,,,,24_BJR,24,22,F,2022-12-17_10h10.39.568,dynamic target,2022.1.3,120.12552011101863,
0,4,4,1,T,0,88,88,88,,,,,,,None,445.5269101642155,None,444.5528178838978,None,445.02736132198504,None,1,[0.008669079769106247],[0.508939768016262],445.5269101642155,None,[1 3 1 1 1 3 3 3],space,0,2.58887057034201,0.0025876705994960503,None,445.53525489916876,None,1,448.12475232346094,None,None,448.6243386900101,None,,,,,,,,,,,,,,,,,,,,,,,,,,,,,,,,,,,,,,,,,,,,,,24_BJR,24,22,F,2022-12-17_10h10.39.568,dynamic target,2022.1.3,120.12552011101863,
0,5,3,2,T,0,89,89,89,,,,,,,None,449.65684555824316,None,448.67428121686555,None,449.1572301023292,None,1,[0.008745411289055482],[0.5171697811852027],449.65684555824316,None,[2 0 0 2 3 1 1 1],space,0,1.2987088052494755,0.002911919199050317,None,449.67347171788913,None,1,450.97237151769525,None,None,451.47198386261863,None,,,,,,,,,,,,,,,,,,,,,,,,,,,,,,,,,,,,,,,,,,,,,,24_BJR,24,22,F,2022-12-17_10h10.39.568,dynamic target,2022.1.3,120.12552011101863,
0,6,1,2,T,0,90,90,90,,,,,,,None,452.5044528858126,None,451.53031740442054,None,452.00484641007745,None,1,[0.008567411315880236],[0.5171611217269856],452.5044528858126,None,[0 3 0 2 3 2 2 3],space,0,1.2358106706250283,0.0025305823196504207,None,452.5210909121232,None,1,453.76172570813526,None,None,454.2613175269358,None,,,,,,,,,,,,,,,,,,,,,,,,,,,,,,,,,,,,,,,,,,,,,,24_BJR,24,22,F,2022-12-17_10h10.39.568,dynamic target,2022.1.3,120.12552011101863,
0,7,4,2,T,0,91,91,91,,,,,,,None,455.30212111823755,None,454.31963150477657,None,454.80250437944085,None,1,[0.008711414897788927],[0.5174199433092781],455.30212111823755,None,[2 1 0 2 3 1 1 3],space,0,1.5892701882993379,0.0025947264539354364,None,455.3187742184199,None,1,456.9091215524933,None,None,457.40868418571273,None,,,,,,,,,,,,,,,,,,,,,,,,,,,,,,,,,,,,,,,,,,,,,,24_BJR,24,22,F,2022-12-17_10h10.39.568,dynamic target,2022.1.3,120.12552011101863,
0,8,2,2,T,0,92,92,92,,,,,,,None,458.4494900220592,None,457.4753660866114,None,457.9499188255978,None,1,[0.008699227512124708],[0.5175075000529432],458.4494900220592,None,[3 2 2 3 3 2 3 0],space,0,3.3530501123401564,0.002295814787657946,None,458.4661585168336,None,1,461.821712019777,None,None,462.3212605412867,None,,,,,,,,,,,,,,,,,,,,,,,,,,,,,,,,,,,,,,,,,,,,,,24_BJR,24,22,F,2022-12-17_10h10.39.568,dynamic target,2022.1.3,120.12552011101863,
0,1,2,2,T,0,93,93,93,,,,,,,None,463.3454245026745,None,462.3545881337201,None,462.8458440053138,None,1,[0.00863829058448573],[0.5175562495951453],463.3454245026745,None,[0 2 3 0 3 3 2 1],space,0,1.3857446983828368,0.002547580515511072,None,463.3620814515049,None,1,464.75258773474354,None,None,465.25213529409126,None,,,,,,,,,,,,,,,,,,,,,,,,,,,,,,,,,,,,,,,,,,,,,,24_BJR,24,22,F,2022-12-17_10h10.39.568,dynamic target,2022.1.3,120.12552011101863,
0,2,3,2,T,0,94,94,94,,,,,,,None,466.28465434970997,None,465.302142285802,None,465.78508603973467,None,1,[0.008695378864103986],[0.5176261667015751],466.28465434970997,None,[1 3 3 3 3 3 0 1],space,0,1.7742169711185625,0.002397483240656584,None,466.3013007147582,None,1,468.07482669858484,None,None,468.57439189756957,None,,,,,,,,,,,,,,,,,,,,,,,,,,,,,,,,,,,,,,,,,,,,,,24_BJR,24,22,F,2022-12-17_10h10.39.568,dynamic target,2022.1.3,120.12552011101863,
0,3,2,2,T,0,95,95,95,,,,,,,None,469.60688080544503,None,468.6243607235202,469.6235380749962,469.10730127024624,None,1,[0.21632962131207023],[0.7163854267091665],469.60688080544503,None,[0 1 2 3 1 2 0 0],space,0,1.628589901267219,0.0029651588306478516,None,469.8233403186297,None,0,471.4636767802723,None,None,471.96325063871524,None,,,,,,,,,,,,,,,,,,,,,,,,,,,,,,,,,,,,,,,,,,,,,,24_BJR,24,22,F,2022-12-17_10h10.39.568,dynamic target,2022.1.3,120.12552011101863,
0,4,2,2,T,0,96,96,96,,,,,,,None,472.9957283213672,None,472.01322459619666,473.0123759692982,472.4961436546379,None,2,"[0.008634762657266037, 0.35003133440977763]","[0.13349805547068172, 0.850320303735316]",472.9957283213672,None,[1 0 1 3 1 0 1 0],space,0,2.425761658091801,0.002451685034429829,None,473.34543252069136,None,1,475.7767752049566,None,None,476.2763371967347,None,,,,,,,,,,,,,,,,,,,,,,,,,,,,,,,,,,,,,,,,,,,,,,24_BJR,24,22,F,2022-12-17_10h10.39.568,dynamic target,2022.1.3,120.12552011101863,
0,5,1,2,T,0,97,97,97,,,,,,,None,477.3087921082189,None,476.3346101223293,477.3337602125481,476.8092148180648,None,2,"[0.008863436496312715, 0.6921918628033836]","[0.48319872686715826, 1.1998558039858835]",477.3087921082189,None,[1 0 3 3 0 0 0 0],space,0,1.283359434599447,0.0028618867740988208,None,478.0082322582135,None,1,479.29050269116726,None,None,479.7900762288894,None,,,,,,,,,,,,,,,,,,,,,,,,,,,,,,,,,,,,,,,,,,,,,,24_BJR,24,22,F,2022-12-17_10h10.39.568,dynamic target,2022.1.3,120.12552011101863,
0,6,2,2,T,0,98,98,98,,,,,,,None,480.8225584016308,None,479.84836037970774,480.84752105370865,480.32295577454363,None,1,[0.1330570645463922],[0.6334929239396843],480.8225584016308,None,[0 2 0 0 2 3 1 3],space,0,3.503470673357583,0.002834625516925371,None,480.9557803166027,None,1,484.46118895001825,None,None,484.9607826931429,None,,,,,,,,,,,,,,,,,,,,,,,,,,,,,,,,,,,,,,,,,,,,,,24_BJR,24,22,F,2022-12-17_10h10.39.568,dynamic target,2022.1.3,120.12552011101863,
0,7,3,2,T,0,99,99,99,,,,,,,None,485.9932337559791,None,485.0107332380152,None,485.4936651252832,None,1,[0.01708479020703635],[0.5172518856772967],485.9932337559791,None,[0 0 3 0 3 2 0 1],space,0,1.3611008426531725,0.0027820273267025186,None,486.0098846111167,None,1,487.37544973056254,None,None,487.8750097980165,None,,,,,,,,,,,,,,,,,,,,,,,,,,,,,,,,,,,,,,,,,,,,,,24_BJR,24,22,F,2022-12-17_10h10.39.568,dynamic target,2022.1.3,120.12552011101863,
0,8,1,2,T,0,100,100,100,,,,,,,None,488.90749229147866,None,487.93336226233794,None,488.40788934367094,None,1,[0.00864951580797424],[0.5179116080998938],488.90749229147866,None,[1 3 3 2 1 1 3 3],space,0,1.7583477122590239,0.001960982405989853,None,488.92413512859946,None,1,490.6810089744059,None,None,491.1806036796925,None,,,,,,,,,,,,,,,,,,,,,,,,,,,,,,,,,,,,,,,,,,,,,,24_BJR,24,22,F,2022-12-17_10h10.39.568,dynamic target,2022.1.3,120.12552011101863,
0,1,4,2,T,0,101,101,101,,,,,,,None,492.2214245899105,None,491.2472188706912,None,491.72180849255517,None,1,[0.009217512118311788],[0.5174629198793355],492.2214245899105,None,[0 0 3 3 0 3 1 2],space,0,1.5647190208443362,0.0024109535090701684,None,492.238052032439,None,1,493.8034068874123,None,None,494.3030003098161,None,,,,,,,,,,,,,,,,,,,,,,,,,,,,,,,,,,,,,,,,,,,,,,24_BJR,24,22,F,2022-12-17_10h10.39.568,dynamic target,2022.1.3,120.12552011101863,
0,2,3,2,T,0,102,102,102,,,,,,,None,495.3354821618369,None,494.3612963272993,None,494.835888194208,None,1,[0.008621613109653481],[0.5168506641164186],495.3354821618369,None,[2 0 2 3 1 2 3 1],space,0,2.194847905653546,0.0031527804237612145,None,495.35213301697456,None,1,497.55030279238656,None,None,498.04989557334926,None,,,,,,,,,,,,,,,,,,,,,,,,,,,,,,,,,,,,,,,,,,,,,,24_BJR,24,22,F,2022-12-17_10h10.39.568,dynamic target,2022.1.3,120.12552011101863,
0,1,2,1,T,0,103,103,103,,,,,,,None,499.07404936789163,None,498.08319237659805,None,498.5744312499961,None,1,[0.00861680229945705],[0.5091937787885854],499.07404936789163,None,[3 3 3 3 0 0 1 3],space,0,1.53572234415185,0.00248536070512273,None,499.0823472776268,None,1,500.62274589493575,None,None,501.12232712995416,None,,,,,,,,,,,,,,,,,,,,,,,,,,,,,,,,,,,,,,,,,,,,,,24_BJR,24,22,F,2022-12-17_10h10.39.568,dynamic target,2022.1.3,120.12552011101863,
0,2,3,2,T,0,104,104,104,,,,,,,None,502.15479775675146,None,501.1722911450946,502.17145823350904,501.6551976954296,None,2,"[0.008620330226904116, 0.6340038319706309]","[0.43480422248012474, 1.1419362163555888]",502.15479775675146,None,[2 3 3 1 3 0 2 0],space,0,1.4702658207253307,0.002182921111170799,None,502.79592992638175,None,1,504.2697097285485,None,None,504.769275248254,None,,,,,,,,,,,,,,,,,,,,,,,,,,,,,,,,,,,,,,,,,,,,,,24_BJR,24,22,F,2022-12-17_10h10.39.568,dynamic target,2022.1.3,120.12552011101863,
0,3,4,2,T,0,105,105,105,,,,,,,None,505.8017680047775,None,504.8276485594191,None,505.30218333804794,None,1,[0.008696982467427006],[0.5173580442196908],505.8017680047775,None,[2 2 3 0 1 3 3 0],space,0,1.904019683004094,0.002627760683253655,None,505.81838518424445,None,1,507.725134045205,None,None,508.22473356130155,None,,,,,,,,,,,,,,,,,,,,,,,,,,,,,,,,,,,,,,,,,,,,,,24_BJR,24,22,F,2022-12-17_10h10.39.568,dynamic target,2022.1.3,120.12552011101863,
0,4,4,2,T,0,106,106,106,,,,,,,None,509.2572357149409,None,508.28305395355585,None,508.74928623614403,None,1,[0.008739638316910714],[0.5166072371259816],509.2572357149409,None,[1 0 3 1 3 3 3 1],space,0,2.3929824017917554,0.0028525858745069854,None,509.26553651116217,None,1,511.6635611283981,None,None,512.1631272895447,None,,,,,,,,,,,,,,,,,,,,,,,,,,,,,,,,,,,,,,,,,,,,,,24_BJR,24,22,F,2022-12-17_10h10.39.568,dynamic target,2022.1.3,120.12552011101863,
0,5,3,2,T,0,107,107,107,,,,,,,None,513.1955777109396,None,512.2130909839647,None,512.6960340964562,None,1,[0.008645987880527173],[0.5174735036616767],513.1955777109396,None,[2 3 1 3 0 0 0 3],space,0,2.270058827603748,0.0025549570905241126,None,513.2122609588652,None,1,515.4853735337452,None,None,515.9849336011991,None,,,,,,,,,,,,,,,,,,,,,,,,,,,,,,,,,,,,,,,,,,,,,,24_BJR,24,22,F,2022-12-17_10h10.39.568,dynamic target,2022.1.3,120.12552011101863,
0,6,3,2,T,0,108,108,108,,,,,,,None,517.0174314892537,None,516.0433062709232,None,516.5178593306304,None,1,[0.008963501345988334],[0.5175107072595893],517.0174314892537,None,[2 3 2 2 0 0 0 3],space,0,1.279808415317234,0.0024356490005175147,None,517.0340868344805,None,1,518.3163380241939,None,None,518.8159381817318,None,,,,,,,,,,,,,,,,,,,,,,,,,,,,,,,,,,,,,,,,,,,,,,24_BJR,24,22,F,2022-12-17_10h10.39.568,dynamic target,2022.1.3,120.12552011101863,
0,7,4,2,T,0,109,109,109,,,,,,,None,519.8484248445628,None,518.8742143145333,None,519.348831518375,None,1,[0.008743166244130407],[0.5176842171431417],519.8484248445628,None,[1 0 0 3 1 0 2 0],space,0,1.0727177944082769,0.002473814760605819,None,519.8650712096108,None,1,520.9391596092083,None,None,521.4387270532377,None,,,,,,,,,,,,,,,,,,,,,,,,,,,,,,,,,,,,,,,,,,,,,,24_BJR,24,22,F,2022-12-17_10h10.39.568,dynamic target,2022.1.3,120.12552011101863,
0,8,4,2,T,0,110,110,110,,,,,,,None,522.4712098674205,None,521.4887298755797,None,521.9716492547415,None,1,[0.008675814902971979],[0.517186458660035],522.4712098674205,None,[2 3 3 3 2 0 0 2],space,0,1.2658743849937082,0.002680358873703881,None,522.4878546288652,None,1,523.7535094859553,None,None,524.2530740434988,None,,,,,,,,,,,,,,,,,,,,,,,,,,,,,,,,,,,,,,,,,,,,,,24_BJR,24,22,F,2022-12-17_10h10.39.568,dynamic target,2022.1.3,120.12552011101863,
0,7,1,1,T,0,111,111,111,,,,,,,None,525.2938581670558,None,524.3030480009801,None,524.7942823842887,None,1,[0.008724243724600456],[0.5089339950441172],525.2938581670558,None,[3 2 0 3 1 3 1 3],space,0,1.3152605576991618,0.002516470610316901,None,525.3021833380479,None,1,526.6177984578468,None,None,527.1173604496248,None,,,,,,,,,,,,,,,,,,,,,,,,,,,,,,,,,,,,,,,,,,,,,,24_BJR,24,22,F,2022-12-17_10h10.39.568,dynamic target,2022.1.3,120.12552011101863,
0,5,1,0,T,0,112,112,112,,,,,,,None,528.1581699101148,None,527.1839916766572,None,527.6502550691506,None,1,[0.008628027522945558],[0.5165369992989781],528.1581699101148,None,[0 2 2 2 0 1 1 3],space,0,2.755696314461943,0.002817627321519467,None,528.1664909117384,None,1,530.9225132441603,None,None,531.4221432287206,None,,,,,,,,,,,,,,,,,,,,,,,,,,,,,,,,,,,,,,,,,,,,,,24_BJR,24,22,F,2022-12-17_10h10.39.568,dynamic target,2022.1.3,120.12552011101863,
0,6,2,2,T,0,113,113,113,,,,,,,None,532.4545974987637,None,531.4720796618834,None,531.9550150770789,None,1,[0.008616160858082367],[0.5171389920005822],532.4545974987637,None,[0 0 0 1 3 1 2 0],space,0,2.4671570752501566,0.0030761281832383247,None,532.4712528439906,None,1,534.9358555448435,None,None,535.4354454393199,None,,,,,,,,,,,,,,,,,,,,,,,,,,,,,,,,,,,,,,,,,,,,,,24_BJR,24,22,F,2022-12-17_10h10.39.568,dynamic target,2022.1.3,120.12552011101863,
0,5,3,1,T,0,114,114,114,,,,,,,None,536.467895860715,None,535.4937228550042,None,535.9683182498401,None,1,[0.008660420310889094],[0.5171117307434088],536.467895860715,None,[0 3 2 3 1 1 0 2],space,0,2.4377335193429417,0.003023850713361753,None,536.4845630726066,None,1,538.9242005556165,None,None,539.4237987888305,None,,,,,,,,,,,,,,,,,,,,,,,,,,,,,,,,,,,,,,,,,,,,,,24_BJR,24,22,F,2022-12-17_10h10.39.568,dynamic target,2022.1.3,120.12552011101863,
0,6,2,2,T,0,115,115,115,,,,,,,None,540.4562687741865,None,539.4820948063137,None,539.9566805795295,None,1,[0.008612312210061646],[0.5173917198903837],540.4562687741865,None,[1 0 2 3 2 1 3 1],space,0,2.0329644670918015,0.0025956886163385207,None,540.4729112905865,None,1,542.5045487812935,None,None,543.0041383550492,None,,,,,,,,,,,,,,,,,,,,,,,,,,,,,,,,,,,,,,,,,,,,,,24_BJR,24,22,F,2022-12-17_10h10.39.568,dynamic target,2022.1.3,120.12552011101863,
0,7,4,2,T,0,116,116,116,,,,,,,None,544.0449393805858,None,543.054087617039,544.0532604784254,543.5453524688115,None,2,"[0.008618726623581097, 0.25008707566257726]","[0.050166486101034025, 0.750581947659839]",544.0449393805858,None,[1 2 0 3 0 2 2 3],space,0,1.0099120273374638,0.0021874112005662028,None,544.2947384490848,None,1,545.3105541475919,None,None,545.8101340997275,None,,,,,,,,,,,,,,,,,,,,,,,,,,,,,,,,,,,,,,,,,,,,,,24_BJR,24,22,F,2022-12-17_10h10.39.568,dynamic target,2022.1.3,120.12552011101863,
0,8,2,2,T,0,117,117,117,,,,,,,None,546.8509155613029,None,545.868416005501,None,546.3513539864617,None,1,[0.008692171657230574],[0.5172085883864384],546.8509155613029,None,[2 0 1 1 2 3 2 0],space,0,1.6697585689104244,0.00257452105165612,None,546.867579565988,None,1,548.5411734784531,None,None,549.0407842197733,None,,,,,,,,,,,,,,,,,,,,,,,,,,,,,,,,,,,,,,,,,,,,,,24_BJR,24,22,F,2022-12-17_10h10.39.568,dynamic target,2022.1.3,120.12552011101863,
0,1,2,2,T,0,118,118,118,,,,,,,None,550.0815839624271,None,549.099121610223,None,549.5820089173177,None,1,[0.0087887085796865],[0.5178404081104873],550.0815839624271,None,[2 1 0 0 3 2 1 3],space,0,2.2304581633269436,0.002038276087887425,None,550.0982377040506,None,1,552.3297133591064,None,None,552.8293154409685,None,,,,,,,,,,,,,,,,,,,,,,,,,,,,,,,,,,,,,,,,,,,,,,24_BJR,24,22,F,2022-12-17_10h10.39.568,dynamic target,2022.1.3,120.12552011101863,
0,7,3,0,T,0,119,119,119,,,,,,,None,553.8617835020003,None,552.8876098548484,553.8867426261507,553.3621760641032,None,2,"[0.08311123426778977, 0.09969666238816899]","[0.09151443659970937, 0.5998862083054064]",553.8617835020003,None,[1 1 0 2 1 0 0 2],space,0,1.6962459270636145,0.0028782435281300423,None,553.9616815769708,None,1,555.6602605919605,None,space,556.1681897691388,None,30.917745244890625,,,,,,,,,,,,,,,,,,,,,,,,,,,,,,,,,,,,,,,,,,,,,24_BJR,24,22,F,2022-12-17_10h10.39.568,dynamic target,2022.1.3,120.12552011101863,
0,8,4,2,T,0,120,120,120,,,,,,,None,588.1332600807319,None,587.1507383952036,None,587.6336779797676,None,1,[0.00873675183083833],[0.5169504082452931],588.1332600807319,None,[1 2 3 0 0 1 2 1],space,0,1.6028071664310346,0.0030344344957029534,None,588.149904521456,None,1,589.7568725629238,None,None,590.2564826628027,None,,,,,,,,,,,,,,,,,,,,,,,,,,,,,,,,,,,,,,,,,,,,,,24_BJR,24,22,F,2022-12-17_10h10.39.568,dynamic target,2022.1.3,120.12552011101863,
0,3,2,0,T,0,121,121,121,,,,,,,None,591.2889587418514,None,590.3231674501873,None,590.7893721507977,None,1,[0.009523158918909758],[0.5171684983024534],591.2889587418514,None,[2 2 2 3 3 1 0 2],space,0,2.1106628985752423,0.002675548063507449,None,591.3056246708605,None,0,593.4288465152737,None,None,593.9283992061521,None,,,,,,,,,,,,,,,,,,,,,,,,,,,,,,,,,,,,,,,,,,,,,,24_BJR,24,22,F,2022-12-17_10h10.39.568,dynamic target,2022.1.3,120.12552011101863,
0,4,4,2,T,0,122,122,122,,,,,,,None,594.9609047915027,None,593.9867725173173,None,594.4613165968459,None,1,[0.008781973445593394],[0.5172874856718863],594.9609047915027,None,[1 3 2 0 3 2 3 0],space,0,2.054001177421128,0.0025879913200697047,None,594.9775694376291,None,1,597.0424977341085,None,None,597.5420975709258,None,,,,,,,,,,,,,,,,,,,,,,,,,,,,,,,,,,,,,,,,,,,,,,24_BJR,24,22,F,2022-12-17_10h10.39.568,dynamic target,2022.1.3,120.12552011101863,
0,5,1,2,T,0,123,123,123,,,,,,,None,598.5745579346616,None,597.5920503608428,None,598.0749710228873,None,1,[0.008586654556438589],[0.5170171181453043],598.5745579346616,None,[0 0 2 1 1 0 1 1],space,0,1.99358125143101,0.0029279552322805102,None,598.5912136006092,None,1,600.5895792080638,None,None,601.0891293331767,None,,,,,,,,,,,,,,,,,,,,,,,,,,,,,,,,,,,,,,,,,,,,,,24_BJR,24,22,F,2022-12-17_10h10.39.568,dynamic target,2022.1.3,120.12552011101863,
0,6,3,2,T,0,124,124,124,,,,,,,None,602.1132865594305,None,601.1224344751632,None,601.6136935539636,None,1,[0.009593396746367944],[0.5177993558647813],602.1132865594305,None,[0 2 1 1 1 1 3 1],space,0,2.5814866183062577,0.0020995337363274302,None,602.1299322830374,None,1,604.711117268948,None,None,605.2107100499106,None,,,,,,,,,,,,,,,,,,,,,,,,,,,,,,,,,,,,,,,,,,,,,,24_BJR,24,22,F,2022-12-17_10h10.39.568,dynamic target,2022.1.3,120.12552011101863,
0,7,2,2,T,0,125,125,125,,,,,,,None,606.251510113285,None,605.2773114499204,None,605.7519225600694,None,1,[0.008625461757446828],[0.5172400190122062],606.251510113285,None,[2 2 0 2 0 2 1 2],space,0,1.4520456793387666,0.0025106976379447588,None,606.2681770044561,None,1,607.7169479707683,None,None,608.2165240742559,None,,,,,,,,,,,,,,,,,,,,,,,,,,,,,,,,,,,,,,,,,,,,,,24_BJR,24,22,F,2022-12-17_10h10.39.568,dynamic target,2022.1.3,120.12552011101863,
0,8,4,2,T,0,126,126,126,,,,,,,None,609.2406854698783,None,608.2582006672272,None,608.7411004824281,None,1,[0.008687360847261516],[0.5177326459647702],609.2406854698783,None,[3 2 2 1 0 3 1 0],space,0,3.5333515769431187,0.0020648959036861925,None,609.2573388907812,None,1,612.7960534038406,None,None,613.2956465055238,None,,,,,,,,,,,,,,,,,,,,,,,,,,,,,,,,,,,,,,,,,,,,,,24_BJR,24,22,F,2022-12-17_10h10.39.568,dynamic target,2022.1.3,120.12552011101863,
0,7,1,1,T,0,127,127,127,,,,,,,None,614.3364459274568,None,613.3539563139958,None,613.8368574120792,None,1,[0.009128993212925707],[0.5173352730519127],614.3364459274568,None,[2 1 1 3 2 0 0 2],space,0,1.3359755851944328,0.0026094796048710123,None,614.3530996690805,None,1,615.6936331815042,None,None,616.1932022291369,None,,,,,,,,,,,,,,,,,,,,,,,,,,,,,,,,,,,,,,,,,,,,,,24_BJR,24,22,F,2022-12-17_10h10.39.568,dynamic target,2022.1.3,120.12552011101863,
0,8,1,2,T,0,128,128,128,,,,,,,None,617.2256747802584,None,616.2515232628326,617.2506855404368,616.7260984522662,None,2,"[0.00856933563977691, 0.6088388051487073]","[0.23338682954135948, 1.116826994930534]",617.2256747802584,None,[0 0 1 0 0 3 0 1],space,0,1.1740376241185686,0.0025479012360847264,None,617.8418577680792,None,1,619.0158798426418,None,None,619.5154620398221,None,,,,,,,,,,,,,,,,,,,,,,,,,,,,,,,,,,,,,,,,,,,,,,24_BJR,24,22,F,2022-12-17_10h10.39.568,dynamic target,2022.1.3,120.12552011101863,
0,1,4,2,T,0,129,129,129,,,,,,,None,620.5396064372488,None,619.5487639746015,None,620.0400179218713,None,1,[0.008621613109426107],[0.5176608045342164],620.5396064372488,None,[3 0 2 1 0 3 1 1],space,0,2.3469352520043003,0.0024096706263208034,None,620.5562611410345,None,1,622.9043229297962,None,None,623.4039070513006,None,,,,,,,,,,,,,,,,,,,,,,,,,,,,,,,,,,,,,,,,,,,,,,24_BJR,24,22,F,2022-12-17_10h10.39.568,dynamic target,2022.1.3,120.12552011101863,
0,7,1,0,T,0,130,130,130,,,,,,,None,624.4446907579207,None,623.4538585583349,None,623.9451080155153,None,1,[0.008784218490291096],[0.5176229594949291],624.4446907579207,None,[3 1 1 3 1 0 3 0],space,0,1.3855105722919916,0.002428593145850755,None,624.4613377644101,None,1,625.8518530278276,None,None,626.351437149332,None,,,,,,,,,,,,,,,,,,,,,,,,,,,,,,,,,,,,,,,,,,,,,,24_BJR,24,22,F,2022-12-17_10h10.39.568,dynamic target,2022.1.3,120.12552011101863,
0,8,2,2,T,0,131,131,131,,,,,,,None,627.3922138000975,None,626.4180446430347,None,626.892661205435,None,1,[0.008612632930862674],[0.5170533595812685],627.3922138000975,None,[0 2 2 3 2 2 1 2],space,0,1.2707833356020046,0.002787479578046259,None,627.4088646552349,None,1,628.6828357993546,None,None,629.182420883021,None,,,,,,,,,,,,,,,,,,,,,,,,,,,,,,,,,,,,,,,,,,,,,,24_BJR,24,22,F,2022-12-17_10h10.39.568,dynamic target,2022.1.3,120.12552011101863,
0,1,2,2,T,0,132,132,132,,,,,,,None,630.2231898364902,None,629.240687714923,None,629.723627299487,None,1,[0.00902315539110532],[0.5176460513832808],630.2231898364902,None,[2 3 0 3 1 3 3 3],space,0,2.102724099776765,0.002296776949606283,None,630.2398750087397,None,1,632.3464623547696,None,None,632.8460243465477,None,,,,,,,,,,,,,,,,,,,,,,,,,,,,,,,,,,,,,,,,,,,,,,24_BJR,24,22,F,2022-12-17_10h10.39.568,dynamic target,2022.1.3,120.12552011101863,
0,2,2,2,T,0,133,133,133,,,,,,,None,633.8868356351458,None,632.9126793069098,None,633.387246157606,None,1,[0.00917902563764983],[0.5174587505107411],633.8868356351458,None,[2 1 0 3 2 1 2 2],space,0,1.7032408449239256,0.0025350724088184506,None,633.9034868110037,None,1,635.610405846353,None,None,636.1099566129076,None,,,,,,,,,,,,,,,,,,,,,,,,,,,,,,,,,,,,,,,,,,,,,,24_BJR,24,22,F,2022-12-17_10h10.39.568,dynamic target,2022.1.3,120.12552011101863,
0,3,1,2,T,0,134,134,134,,,,,,,None,637.1424759892469,None,636.1682830988544,None,636.6428698342323,None,1,[0.00868639868531318],[0.5170677920111757],637.1424759892469,None,[1 3 3 1 2 0 1 0],space,0,2.6565269168589793,0.0030677894453674526,None,637.1591191470883,None,1,639.8152485360705,None,None,640.314816942262,None,,,,,,,,,,,,,,,,,,,,,,,,,,,,,,,,,,,,,,,,,,,,,,24_BJR,24,22,F,2022-12-17_10h10.39.568,dynamic target,2022.1.3,120.12552011101863,
0,4,4,2,T,0,135,135,135,,,,,,,None,641.3389367404131,None,640.3564524829875,None,640.8394103486299,None,1,[0.008672286975752286],[0.5088364959599403],641.3389367404131,None,[2 3 3 2 2 3 3 0],space,0,2.7234725463662244,0.0026938291418900917,None,641.3472660807741,None,1,644.0700312830944,None,None,644.5696317613531,None,,,,,,,,,,,,,,,,,,,,,,,,,,,,,,,,,,,,,,,,,,,,,,24_BJR,24,22,F,2022-12-17_10h10.39.568,dynamic target,2022.1.3,120.12552011101863,
0,5,1,2,T,0,136,136,136,,,,,,,None,645.6020776926586,None,644.6278979518137,None,645.1024975160184,None,1,[0.008635083377612318],[0.5170966568718995],645.6020776926586,None,[1 0 2 3 0 3 1 3],space,0,2.708528245925322,0.0027608597624748654,None,645.6187086631145,None,1,648.3248146715597,None,None,648.8244010381086,None,,,,,,,,,,,,,,,,,,,,,,,,,,,,,,,,,,,,,,,,,,,,,,24_BJR,24,22,F,2022-12-17_10h10.39.568,dynamic target,2022.1.3,120.12552011101863,
0,6,1,2,T,0,137,137,137,,,,,,,None,649.8485474560757,None,648.85768950262,None,649.3489665417782,None,1,[0.008637649143111048],[0.5086697212104809],649.8485474560757,None,[1 0 1 1 1 3 0 0],space,0,1.1263156709807163,0.0028750363217113772,None,649.8568873802188,None,1,650.9809376461284,None,None,651.480527540605,None,,,,,,,,,,,,,,,,,,,,,,,,,,,,,,,,,,,,,,,,,,,,,,24_BJR,24,22,F,2022-12-17_10h10.39.568,dynamic target,2022.1.3,120.12552011101863,
0,5,2,1,T,0,138,138,138,,,,,,,None,652.513008109743,None,651.5304684638571,None,652.0134147835553,None,1,[0.008696020305478669],[0.5172127577552601],652.513008109743,None,[2 0 2 1 0 3 1 0],space,0,2.4532592863623677,0.0026938291418900917,None,652.5296224027239,None,1,654.9859623768995,None,None,655.4855240479567,None,,,,,,,,,,,,,,,,,,,,,,,,,,,,,,,,,,,,,,,,,,,,,,24_BJR,24,22,F,2022-12-17_10h10.39.568,dynamic target,2022.1.3,120.12552011101863,
0,6,2,2,T,0,139,139,139,,,,,,,None,656.5179834495306,None,655.5438717014682,None,656.0184173846,None,1,[0.008637969863912076],[0.5171120514642098],656.5179834495306,None,[2 1 3 0 2 2 1 1],space,0,0.8316025588295588,0.0027265426506346557,None,656.5346564343944,None,1,657.367291879545,None,None,657.8668760010494,None,,,,,,,,,,,,,,,,,,,,,,,,,,,,,,,,,,,,,,,,,,,,,,24_BJR,24,22,F,2022-12-17_10h10.39.568,dynamic target,2022.1.3,120.12552011101863,
0,7,3,2,T,0,140,140,140,,,,,,,None,658.8993671539696,None,657.9251781122254,None,658.3997741485026,None,1,[0.008672928416899595],[0.5176717090369038],658.8993671539696,None,[0 3 1 3 1 1 2 1],space,0,1.234155431235763,0.002408067022997784,None,658.9160144811798,None,1,660.1483137469219,None,None,660.6479058864431,None,,,,,,,,,,,,,,,,,,,,,,,,,,,,,,,,,,,,,,,,,,,,,,24_BJR,24,22,F,2022-12-17_10h10.39.568,dynamic target,2022.1.3,120.12552011101863,
0,8,4,2,T,0,141,141,141,,,,,,,None,661.6886905552252,None,660.7062118462671,None,661.1890924182275,None,1,[0.008667796886356882],[0.5176088477853682],661.6886905552252,None,[0 0 2 2 2 3 2 0],space,0,1.9644351189052713,0.002253479658975266,None,661.7053430139662,None,1,663.6703777255644,None,None,664.1699544704934,None,,,,,,,,,,,,,,,,,,,,,,,,,,,,,,,,,,,,,,,,,,,,,,24_BJR,24,22,F,2022-12-17_10h10.39.568,dynamic target,2022.1.3,120.12552011101863,
0,1,1,2,T,0,142,142,142,,,,,,,None,665.2024420954864,None,664.2199332387848,None,664.7028545422708,None,1,[0.008588578880335263],[0.5172352082022371],665.2024420954864,None,[0 0 1 1 1 0 2 0],space,0,1.2187646876192275,0.0026101210464730684,None,665.2190874983725,None,1,666.4430663077161,None,None,666.9426536364272,None,,,,,,,,,,,,,,,,,,,,,,,,,,,,,,,,,,,,,,,,,,,,,,24_BJR,24,22,F,2022-12-17_10h10.39.568,dynamic target,2022.1.3,120.12552011101863,
0,2,3,2,T,0,143,143,143,,,,,,,None,667.9668259365525,None,666.9759655135475,None,667.467211763521,None,1,[0.008745411288828109],[0.5175642676117604],667.9668259365525,None,[1 3 0 0 0 0 0 3],space,0,1.9102374946754708,0.002587991319842331,None,667.9834594727737,None,1,669.8985332802221,None,None,670.3981000828101,None,,,,,,,,,,,,,,,,,,,,,,,,,,,,,,,,,,,,,,,,,,,,,,24_BJR,24,22,F,2022-12-17_10h10.39.568,dynamic target,2022.1.3,120.12552011101863,
0,3,3,2,T,0,144,144,144,,,,,,,None,671.4305851420376,None,670.4564057219135,None,670.9310036825149,None,1,[0.008688002288636199],[0.5170793379554652],671.4305851420376,None,[0 1 3 2 3 2 2 3],space,0,2.39912227833986,0.002955537210254988,None,671.447244977354,None,1,673.8452144306342,None,None,674.3448373593399,None,,,,,,,,,,,,,,,,,,,,,,,,,,,,,,,,,,,,,,,,,,,,,,24_BJR,24,22,F,2022-12-17_10h10.39.568,dynamic target,2022.1.3,120.12552011101863,
0,1,2,0,T,0,145,145,145,,,,,,,None,675.377294515869,None,674.3947699438546,None,674.877717225715,None,1,[0.009155933749298129],[0.5177855648755667],675.377294515869,None,[3 2 2 1 2 0 1 1],space,0,1.5232578559481453,0.0020738760824769997,None,675.3939585205541,None,1,676.9176828701164,None,None,677.4172814240512,None,,,,,,,,,,,,,,,,,,,,,,,,,,,,,,,,,,,,,,,,,,,,,,24_BJR,24,22,F,2022-12-17_10h10.39.568,dynamic target,2022.1.3,120.12552011101863,
0,2,1,2,T,0,146,146,146,,,,,,,None,678.4580638477886,None,677.4755392757744,None,677.9584859161931,None,1,[0.00811744021279992],[0.5168234028592451],678.4580638477886,None,[1 1 3 2 2 2 0 3],space,0,1.7232554184712399,0.002524809347733026,None,678.4747102128366,None,1,680.1982849141335,None,None,680.6978661491519,None,,,,,,,,,,,,,,,,,,,,,,,,,,,,,,,,,,,,,,,,,,,,,,24_BJR,24,22,F,2022-12-17_10h10.39.568,dynamic target,2022.1.3,120.12552011101863,
0,3,4,2,T,0,147,147,147,,,,,,,None,681.7303431903625,None,680.7561531864561,None,681.2307726353425,None,1,[0.008628989684893895],[0.5174061523205182],681.7303431903625,None,[1 1 3 2 2 0 2 0],space,0,2.4665618176824182,0.0026938291418900917,None,681.7469950076621,None,1,684.2116153481519,None,None,684.7111693219131,None,,,,,,,,,,,,,,,,,,,,,,,,,,,,,,,,,,,,,,,,,,,,,,24_BJR,24,22,F,2022-12-17_10h10.39.568,dynamic target,2022.1.3,120.12552011101863,
0,4,3,2,T,0,148,148,148,,,,,,,None,685.7353637517648,None,684.7445055738045,None,685.2357210345937,None,1,[0.008684153640615477],[0.5174209054714538],685.7353637517648,None,[0 1 0 3 3 3 1 1],space,0,3.2774556084660844,0.002561692224617218,None,685.751992477176,None,1,689.0326137644332,None,None,689.5321840949487,None,,,,,,,,,,,,,,,,,,,,,,,,,,,,,,,,,,,,,,,,,,,,,,24_BJR,24,22,F,2022-12-17_10h10.39.568,dynamic target,2022.1.3,120.12552011101863,
0,5,2,2,T,0,149,149,149,,,,,,,None,690.5646515145394,None,689.5821910866595,None,690.0650687721337,None,1,[0.0078159627810237],[0.5167278280987375],690.5646515145394,None,[0 1 3 1 1 0 2 2],space,0,2.160513795534712,0.002508452593247057,None,690.5812863336431,None,1,692.7461524744562,None,None,693.2457542355976,None,,,,,,,,,,,,,,,,,,,,,,,,,,,,,,,,,,,,,,,,,,,,,,24_BJR,24,22,F,2022-12-17_10h10.39.568,dynamic target,2022.1.3,120.12552011101863,
0,6,4,2,T,0,150,150,150,,,,,,,None,694.278236408339,None,693.2957169678556,None,693.7786190281009,None,1,[0.00870147255682241],[0.5169109596026829],694.278236408339,None,[2 3 3 0 2 2 2 1],space,0,1.679088012543275,0.002871829114610591,None,694.294891753566,None,1,695.9768487782788,None,None,696.4764017898779,None,,,,,,,,,,,,,,,,,,,,,,,,,,,,,,,,,,,,,,,,,,,,,,24_BJR,24,22,F,2022-12-17_10h10.39.568,dynamic target,2022.1.3,120.12552011101863,
0,7,1,2,T,0,151,151,151,,,,,,,None,697.508867605865,None,696.5347343695177,None,697.0092887121076,None,1,[0.008652723014620278],[0.517516480231734],697.508867605865,None,[0 3 1 2 0 0 0 1],space,0,1.1519059734140455,0.002541807542911556,None,697.525536742081,None,1,698.6829031506958,None,None,699.1824548794123,None,,,,,,,,,,,,,,,,,,,,,,,,,,,,,,,,,,,,,,,,,,,,,,24_BJR,24,22,F,2022-12-17_10h10.39.568,dynamic target,2022.1.3,120.12552011101863,
0,8,1,2,T,0,152,152,152,,,,,,,None,700.2232877525114,None,699.2324429486033,None,699.7153732322678,None,1,[0.008845155417930073],[0.5165405272261978],700.2232877525114,None,[2 3 2 3 0 3 3 2],space,0,1.0062426621271925,0.0031717029435185395,None,700.2316090748556,None,1,701.2390972611096,None,None,701.7386884384689,None,,,,,,,,,,,,,,,,,,,,,,,,,,,,,,,,,,,,,,,,,,,,,,24_BJR,24,22,F,2022-12-17_10h10.39.568,dynamic target,2022.1.3,120.12552011101863,
0,2,3,0,T,0,153,153,153,,,,,,,None,702.7794660513961,None,701.8053251177527,None,702.2799009486276,None,1,[0.008956445491321574],[0.5177005738976277],702.7794660513961,None,[1 3 2 0 0 0 1 2],space,0,1.6087068231955755,0.002256045424246622,None,702.7961406398634,None,1,704.4031346597059,None,None,704.9027101217521,None,,,,,,,,,,,,,,,,,,,,,,,,,,,,,,,,,,,,,,,,,,,,,,24_BJR,24,22,F,2022-12-17_10h10.39.568,dynamic target,2022.1.3,120.12552011101863,
0,3,1,2,T,0,154,154,154,,,,,,,None,705.9351919737727,None,704.9610000455424,None,705.43561051425,None,1,[0.00877106894267854],[0.5172522063978704],705.9351919737727,None,[1 3 0 1 0 0 1 0],space,0,1.9260894346188024,0.002710827337068622,None,705.9518514883686,None,1,707.8752422242877,None,None,708.3748317980435,None,,,,,,,,,,,,,,,,,,,,,,,,,,,,,,,,,,,,,,,,,,,,,,24_BJR,24,22,F,2022-12-17_10h10.39.568,dynamic target,2022.1.3,120.12552011101863,
0,4,1,2,T,0,155,155,155,,,,,,,None,709.4073110842988,None,708.4331756029068,None,708.907723851804,None,1,[0.008690888774708583],[0.5170511145363434],709.4073110842988,None,[0 1 3 3 1 0 3 3],space,0,2.341634060013689,0.003053357015232905,None,709.4239587322296,None,1,711.7636471456823,None,None,712.2632569248403,None,,,,,,,,,,,,,,,,,,,,,,,,,,,,,,,,,,,,,,,,,,,,,,24_BJR,24,22,F,2022-12-17_10h10.39.568,dynamic target,2022.1.3,120.12552011101863,
0,5,3,2,T,0,156,156,156,,,,,,,None,713.2957378146992,None,712.3132055453888,None,712.7961823335507,None,1,[0.008653364456222334],[0.5174898604159353],713.2957378146992,None,[3 0 0 1 0 1 0 2],space,0,2.0687710058165294,0.0024375733248689357,None,713.3123954049707,None,1,715.3856585902787,None,None,715.8852491261966,None,,,,,,,,,,,,,,,,,,,,,,,,,,,,,,,,,,,,,,,,,,,,,,24_BJR,24,22,F,2022-12-17_10h10.39.568,dynamic target,2022.1.3,120.12552011101863,
0,2,1,0,T,0,157,157,157,,,,,,,None,716.926054000381,None,715.9435983833113,None,716.426442393115,None,1,[0.00875695723334502],[0.517210833431136],716.926054000381,None,[3 1 0 3 3 2 0 1],space,0,1.5746806049220368,0.00280800570089923,None,716.9427006861498,None,1,718.5163920335552,None,None,719.0159761550594,None,,,,,,,,,,,,,,,,,,,,,,,,,,,,,,,,,,,,,,,,,,,,,,24_BJR,24,22,F,2022-12-17_10h10.39.568,dynamic target,2022.1.3,120.12552011101863,
0,3,1,2,T,0,158,158,158,,,,,,,None,720.0401397957265,None,719.0492732790289,None,719.5405329992708,None,1,[0.008594351852252657],[0.5178279000042494],720.0401397957265,None,[1 0 3 1 0 1 2 0],space,0,2.075916983113416,0.002099854456673711,None,720.056777180596,None,1,722.1383758961739,None,None,722.6379536032648,None,,,,,,,,,,,,,,,,,,,,,,,,,,,,,,,,,,,,,,,,,,,,,,24_BJR,24,22,F,2022-12-17_10h10.39.568,dynamic target,2022.1.3,120.12552011101863,
0,6,4,0,T,0,159,159,159,,,,,,,None,723.6704360967268,None,722.679606783627,None,723.1708437327012,None,1,[0.007962532128203748],[0.516879208256114],723.6704360967268,None,[0 2 3 0 3 2 0 1],space,0,0.9892046971382342,0.002512301241267778,None,723.6870888761883,None,1,724.6778950973998,None,None,725.1774795396248,None,,,,,,,,,,,,,,,,,,,,,,,,,,,,,,,,,,,,,,,,,,,,,,24_BJR,24,22,F,2022-12-17_10h10.39.568,dynamic target,2022.1.3,120.12552011101863,
0,7,2,2,T,0,160,160,160,,,,,,,None,726.2099527321874,None,725.2357858201693,None,725.710396288877,None,1,[0.008644063556630499],[0.5176608045342164],726.2099527321874,None,[1 1 3 0 0 1 1 0],space,0,0.9621535120433009,0.0022877967708154756,None,726.2266067945317,None,1,727.192460306006,None,None,727.6921072887621,None,,,,,,,,,,,,,,,,,,,,,,,,,,,,,,,,,,,,,,,,,,,,,,24_BJR,24,22,F,2022-12-17_10h10.39.568,dynamic target,2022.1.3,120.12552011101863,
0,8,1,2,T,0,161,161,161,,,,,,,None,728.724546260429,None,727.7504257566924,None,728.224968553338,None,1,[0.008601728427720445],[0.5088262328981727],728.724546260429,None,[1 2 0 2 1 0 2 3],space,0,1.655948016045727,0.0025023589003012603,None,728.7328958061925,None,1,730.3898212238829,None,None,730.8894431904266,None,,,,,,,,,,,,,,,,,,,,,,,,,,,,,,,,,,,,,,,,,,,,,,24_BJR,24,22,F,2022-12-17_10h10.39.568,dynamic target,2022.1.3,120.12552011101863,
0,5,2,0,T,0,162,162,162,,,,,,,None,731.9302294628122,None,730.9393613425112,None,731.4306069510434,None,1,[0.008626103198821511],[0.5174667685275836],731.9302294628122,None,[3 1 0 2 1 0 0 2],space,0,1.9453323542287535,0.002455212961649522,None,731.9468745449775,None,1,733.895216707751,None,None,734.3948515031216,None,,,,,,,,,,,,,,,,,,,,,,,,,,,,,,,,,,,,,,,,,,,,,,24_BJR,24,22,F,2022-12-17_10h10.39.568,dynamic target,2022.1.3,120.12552011101863,
0,4,3,1,T,0,163,163,163,,,,,,,None,735.4272830019969,None,734.4531404647499,None,734.9277105226528,None,1,[0.008594993293854714],[0.5170174388658779],735.4272830019969,None,[3 2 1 0 3 0 1 1],space,0,2.0645560947428976,0.002877922807329014,None,735.4439332156929,None,1,737.50891282748,None,None,738.008502080515,None,,,,,,,,,,,,,,,,,,,,,,,,,,,,,,,,,,,,,,,,,,,,,,24_BJR,24,22,F,2022-12-17_10h10.39.568,dynamic target,2022.1.3,120.12552011101863,
0,5,4,2,T,0,164,164,164,,,,,,,None,739.0409762352398,None,738.0584404380019,739.0576222795672,738.5413934928341,None,1,[0.16633889013974112],[0.6663491532012813],739.0409762352398,None,[2 0 2 1 3 2 2 1],space,0,1.1329930753755661,0.0030674687252485455,None,739.2074883145423,None,1,740.3398702620738,None,None,740.8394861349245,None,,,,,,,,,,,,,,,,,,,,,,,,,,,,,,,,,,,,,,,,,,,,,,24_BJR,24,22,F,2022-12-17_10h10.39.568,dynamic target,2022.1.3,120.12552011101863,
0,4,4,1,T,0,165,165,165,,,,,,,None,741.8719423292918,None,740.8977577776367,None,741.3723573418414,None,1,[0.008652081573245596],[0.5170184010278263],741.8719423292918,None,[3 1 2 0 2 2 0 2],space,0,1.9714476764025903,0.002757973276402481,None,741.8885678474961,None,1,743.8619461073812,None,None,744.3615417748297,None,,,,,,,,,,,,,,,,,,,,,,,,,,,,,,,,,,,,,,,,,,,,,,24_BJR,24,22,F,2022-12-17_10h10.39.568,dynamic target,2022.1.3,120.12552011101863,
0,5,1,2,T,0,166,166,166,,,,,,,None,745.3940005349622,None,744.4114942440261,None,744.8944299799422,None,1,[0.008636045539788029],[0.5173612514263368],745.3940005349622,None,[3 2 0 3 3 2 2 0],space,0,2.384709412052757,0.002178110301201741,None,745.4106622946025,None,1,747.8003167437358,None,None,748.2998877156926,None,,,,,,,,,,,,,,,,,,,,,,,,,,,,,,,,,,,,,,,,,,,,,,24_BJR,24,22,F,2022-12-17_10h10.39.568,dynamic target,2022.1.3,120.12552011101863,
0,6,4,2,T,0,167,167,167,,,,,,,None,749.3324003568981,None,748.3582619890198,None,748.8328144072858,None,1,[0.008628027522945558],[0.5176351468803659],749.3324003568981,None,[3 1 3 0 3 2 3 2],space,0,1.119017992806107,0.002365090453167795,None,749.3490540985216,None,1,750.4731117410066,None,None,750.9726993904383,None,,,,,,,,,,,,,,,,,,,,,,,,,,,,,,,,,,,,,,,,,,,,,,24_BJR,24,22,F,2022-12-17_10h10.39.568,dynamic target,2022.1.3,120.12552011101863,
0,5,3,1,T,0,168,168,168,,,,,,,None,752.0051786766936,None,751.0310454403462,752.0301557612016,751.5055933685229,None,1,[0.08342072971640846],[0.5918553626740959],752.0051786766936,None,[2 0 0 2 2 3 3 3],space,0,1.3155290009018472,0.0029693281990148535,None,752.0967357691428,None,1,753.4123393429974,None,None,753.9119228230604,None,,,,,,,,,,,,,,,,,,,,,,,,,,,,,,,,,,,,,,,,,,,,,,24_BJR,24,22,F,2022-12-17_10h10.39.568,dynamic target,2022.1.3,120.12552011101863,
0,4,1,1,T,0,169,169,169,,,,,,,None,754.9443828660754,None,753.9702650243204,None,754.4448212912342,None,1,[0.008626103198821511],[0.5177881306410654],754.9443828660754,None,[0 3 0 3 2 2 2 2],space,0,1.8582319962405336,0.0020700274344562786,None,754.9610452671571,None,1,756.8178277717162,None,None,757.3174301742988,None,,,,,,,,,,,,,,,,,,,,,,,,,,,,,,,,,,,,,,,,,,,,,,24_BJR,24,22,F,2022-12-17_10h10.39.568,dynamic target,2022.1.3,120.12552011101863,
0,5,3,2,T,0,170,170,170,,,,,,,None,758.3498898965933,None,757.3673845678194,None,757.8503071541878,None,1,[0.008975368010851525],[0.5177961486579079],758.3498898965933,None,[0 0 0 1 1 3 3 3],space,0,2.5326729320007644,0.0021399445411134366,None,758.3665532598371,None,1,760.8977818316872,None,None,761.397352803644,None,,,,,,,,,,,,,,,,,,,,,,,,,,,,,,,,,,,,,,,,,,,,,,24_BJR,24,22,F,2022-12-17_10h10.39.568,dynamic target,2022.1.3,120.12552011101863,
0,3,2,0,T,0,171,171,171,,,,,,,None,762.4298308070166,None,761.4473213088739,None,761.9302730808237,None,1,[0.008681908595917776],[0.5172480370290486],762.4298308070166,None,[1 1 2 0 0 2 2 0],space,0,1.941080239557209,0.0025751624930308026,None,762.4465009053946,None,1,764.3865386478031,None,None,764.886127259397,None,,,,,,,,,,,,,,,,,,,,,,,,,,,,,,,,,,,,,,,,,,,,,,24_BJR,24,22,F,2022-12-17_10h10.39.568,dynamic target,2022.1.3,120.12552011101863,
0,4,3,2,T,0,172,172,172,,,,,,,None,765.9185622861997,None,764.9360688240905,None,765.4189882032523,None,1,[0.009133804023122138],[0.5175485522988765],765.9185622861997,None,[0 1 1 0 1 0 3 3],space,0,2.404018400121572,0.0022890796535648406,None,765.9352266116053,None,1,768.3415726474017,None,None,768.8411545238614,None,,,,,,,,,,,,,,,,,,,,,,,,,,,,,,,,,,,,,,,,,,,,,,24_BJR,24,22,F,2022-12-17_10h10.39.568,dynamic target,2022.1.3,120.12552011101863,
0,5,1,2,T,0,173,173,173,,,,,,,None,769.8736366966028,None,768.8827942339555,None,769.3740497848286,None,1,[0.0091661968108383],[0.5173301415211427],769.8736366966028,None,[3 3 3 0 0 3 0 2],space,0,1.7137774811668578,0.002775292192609413,None,769.8902772886787,None,1,771.6054927263759,None,None,772.1051060334614,None,,,,,,,,,,,,,,,,,,,,,,,,,,,,,,,,,,,,,,,,,,,,,,24_BJR,24,22,F,2022-12-17_10h10.39.568,dynamic target,2022.1.3,120.12552011101863,
0,6,3,2,T,0,174,174,174,,,,,,,None,773.1459048139533,None,772.1634052581513,None,772.6463185436204,None,1,[0.008754712188647318],[0.5174645234828859],773.1459048139533,None,[0 0 1 2 3 3 0 2],space,0,1.8007572481825491,0.0026838868011509476,None,773.162535784409,None,1,774.9610443049952,None,None,775.4606521598291,None,,,,,,,,,,,,,,,,,,,,,,,,,,,,,,,,,,,,,,,,,,,,,,24_BJR,24,22,F,2022-12-17_10h10.39.568,dynamic target,2022.1.3,120.12552011101863,
0,7,1,2,T,0,175,175,175,,,,,,,None,776.4847944084274,None,775.493965640553,None,775.9852134941299,None,1,[0.008638611305059385],[0.5090180238603352],776.4847944084274,None,[0 2 3 3 2 2 2 0],space,0,1.5106153677714929,0.002605310236049263,None,776.4931186172577,None,1,778.0085366221314,None,None,778.5081274787699,None,,,,,,,,,,,,,,,,,,,,,,,,,,,,,,,,,,,,,,,,,,,,,,24_BJR,24,22,F,2022-12-17_10h10.39.568,dynamic target,2022.1.3,120.12552011101863,
0,8,4,2,T,0,176,176,176,,,,,,,None,779.5489086196247,None,778.5747391418414,None,779.0493072754201,None,1,[0.00864791220465122],[0.5173638171918356],779.5489086196247,None,[2 1 2 2 1 2 0 2],space,0,1.5574986363513972,0.0026819624767995265,None,779.5655431180079,None,1,781.1225954769405,None,None,781.6221767119589,None,,,,,,,,,,,,,,,,,,,,,,,,,,,,,,,,,,,,,,,,,,,,,,24_BJR,24,22,F,2022-12-17_10h10.39.568,dynamic target,2022.1.3,120.12552011101863,
0,1,1,2,T,0,177,177,177,,,,,,,None,782.6629786996574,None,781.6721442550269,782.6713158335307,782.1633959572517,None,1,[0.02627568250954937],[0.5339319263957805],782.6629786996574,None,[1 2 3 1 3 0 0 2],space,0,2.4906129816096154,0.0027188453543658397,None,782.69629837029,None,1,785.1858804006957,None,None,785.6854693330101,None,,,,,,,,,,,,,,,,,,,,,,,,,,,,,,,,,,,,,,,,,,,,,,24_BJR,24,22,F,2022-12-17_10h10.39.568,dynamic target,2022.1.3,120.12552011101863,
0,2,3,2,T,0,178,178,178,,,,,,,None,786.7179560920572,None,785.7437881216609,None,786.218359141726,None,1,[0.008667476165783228],[0.5088438725354081],786.7179560920572,None,[0 1 1 3 0 0 0 0],space,0,1.996300000569022,0.0024500814311068098,None,786.7262822252113,None,1,788.7246183263641,None,None,789.224195071293,None,,,,,,,,,,,,,,,,,,,,,,,,,,,,,,,,,,,,,,,,,,,,,,24_BJR,24,22,F,2022-12-17_10h10.39.568,dynamic target,2022.1.3,120.12552011101863,
0,3,4,2,T,0,179,179,179,,,,,,,None,790.2566448512465,None,789.2825356689497,None,789.7570572980311,None,1,[0.008637649143111048],[0.51725060279432],790.2566448512465,None,[0 2 0 2 0 2 3 0],space,0,1.745388352058285,0.0027230147229602153,None,790.2732787081885,None,1,792.0218715462394,None,space,792.5297715378364,None,33.31736191954326,,,,,,,,,,,,,,,,,,,,,,,,,,,,,,,,,,,,,,,,,,,,,24_BJR,24,22,F,2022-12-17_10h10.39.568,dynamic target,2022.1.3,120.12552011101863,
0,7,2,0,T,0,180,180,180,,,,,,,None,826.8928161135199,None,825.9186469564571,None,826.3932686503882,None,1,[0.008656892383442027],[0.5172005703695959],826.8928161135199,None,[1 2 3 0 2 3 3 2],space,0,1.7966594001539988,0.0026986399518591497,None,826.9094926263111,None,1,828.7079831865395,None,None,829.2075724395747,None,,,,,,,,,,,,,,,,,,,,,,,,,,,,,,,,,,,,,,,,,,,,,,24_BJR,24,22,F,2022-12-17_10h10.39.568,dynamic target,2022.1.3,120.12552011101863,
0,8,3,2,T,0,181,181,181,,,,,,,None,830.240009711422,None,829.2575403033633,830.2566955251128,829.7404407600053,None,1,[0.05062511666210412],[0.55848982898533],830.240009711422,None,[3 2 1 1 1 0 2 1],space,0,1.7034464268746206,0.0024843985427196458,None,830.2983398215125,None,1,832.0052392929007,None,None,832.5048458648521,None,,,,,,,,,,,,,,,,,,,,,,,,,,,,,,,,,,,,,,,,,,,,,,24_BJR,24,22,F,2022-12-17_10h10.39.568,dynamic target,2022.1.3,120.12552011101863,
0,1,1,2,T,0,182,182,182,,,,,,,None,833.537294361923,None,832.5547813358529,None,833.0377112987968,None,1,[0.008655609500692663],[0.5173035217053439],833.537294361923,None,[0 3 0 3 2 1 0 1],space,0,1.5686000616982483,0.0026947913038384286,None,833.553933029675,None,1,835.1276291878904,None,None,835.627231590473,None,,,,,,,,,,,,,,,,,,,,,,,,,,,,,,,,,,,,,,,,,,,,,,24_BJR,24,22,F,2022-12-17_10h10.39.568,dynamic target,2022.1.3,120.12552011101863,
0,2,1,2,T,0,183,183,183,,,,,,,None,836.6513705356484,None,835.6605267901185,None,836.1517816995503,None,1,[0.008422766292824235],[0.5170546424637905],836.6513705356484,None,[1 3 2 0 0 2 1 3],space,0,1.7338921195638477,0.002513584124017143,None,836.6680428790711,None,1,838.3999226421739,None,None,838.8995038771923,None,,,,,,,,,,,,,,,,,,,,,,,,,,,,,,,,,,,,,,,,,,,,,,24_BJR,24,22,F,2022-12-17_10h10.39.568,dynamic target,2022.1.3,120.12552011101863,
0,3,3,2,T,0,184,184,184,,,,,,,None,839.9319786733582,None,838.9578419090834,None,839.4323920823048,None,1,[0.009248301302932305],[0.5176604838134153],839.9319786733582,None,[1 3 2 2 0 2 3 1],space,0,1.7159176502124183,0.001968679702031295,None,839.9486285663337,None,1,841.6638533049303,None,None,842.1634618012058,None,,,,,,,,,,,,,,,,,,,,,,,,,,,,,,,,,,,,,,,,,,,,,,24_BJR,24,22,F,2022-12-17_10h10.39.568,dynamic target,2022.1.3,120.12552011101863,
0,4,4,2,T,0,185,185,185,,,,,,,None,843.1959263343102,None,842.2134152325642,None,842.6963205000164,None,1,[0.008627706802371904],[0.5174186604267561],843.1959263343102,None,[1 1 1 2 0 0 2 2],space,0,2.2768160914457667,0.0026428345552176324,None,843.2125563426042,None,1,845.4940044477543,None,None,845.9935892107001,None,,,,,,,,,,,,,,,,,,,,,,,,,,,,,,,,,,,,,,,,,,,,,,24_BJR,24,22,F,2022-12-17_10h10.39.568,dynamic target,2022.1.3,120.12552011101863,
0,3,1,1,T,0,186,186,186,,,,,,,None,847.0260364248883,None,846.051882341697,None,846.5264870374327,None,1,[0.008692492378031602],[0.5168250064625681],847.0260364248883,None,[2 1 1 1 2 1 1 1],space,0,2.6870909554762648,0.003111086736225843,None,847.0426898457912,None,1,849.7321170964004,None,None,850.2317538160949,None,,,,,,,,,,,,,,,,,,,,,,,,,,,,,,,,,,,,,,,,,,,,,,24_BJR,24,22,F,2022-12-17_10h10.39.568,dynamic target,2022.1.3,120.12552011101863,
0,2,4,1,T,0,187,187,187,,,,,,,None,851.2642042374899,None,850.2816918528612,None,850.7646247022911,None,1,[0.007905443848358118],[0.5168593235744083],851.2642042374899,None,[2 0 1 0 2 3 3 3],space,0,1.536053969326872,0.0018907445789864141,None,851.2808589412754,None,1,852.8212370324615,None,None,853.3208262854967,None,,,,,,,,,,,,,,,,,,,,,,,,,,,,,,,,,,,,,,,,,,,,,,24_BJR,24,22,F,2022-12-17_10h10.39.568,dynamic target,2022.1.3,120.12552011101863,
0,5,4,0,T,0,188,188,188,,,,,,,None,854.3449841531916,None,853.3540948653261,None,853.8453885819594,None,1,[0.008621613109653481],[0.517331745124693],854.3449841531916,None,[0 1 2 3 0 3 2 1],space,0,1.7675459811370047,0.0027910075057206996,None,854.361609671396,None,1,856.1268238582826,None,None,856.6264227329377,None,,,,,,,,,,,,,,,,,,,,,,,,,,,,,,,,,,,,,,,,,,,,,,24_BJR,24,22,F,2022-12-17_10h10.39.568,dynamic target,2022.1.3,120.12552011101863,
0,6,1,2,T,0,189,189,189,,,,,,,None,857.6588830966735,None,856.6847395972646,None,857.1592881668827,None,1,[0.00864951580797424],[0.5177971108198562],857.6588830966735,None,[0 3 0 1 1 1 2 3],space,0,3.7814642961476466,0.0020668202273554925,None,857.6755368382973,None,1,861.4557190589543,None,None,861.9553051047826,None,,,,,,,,,,,,,,,,,,,,,,,,,,,,,,,,,,,,,,,,,,,,,,24_BJR,24,22,F,2022-12-17_10h10.39.568,dynamic target,2022.1.3,120.12552011101863,
0,7,3,2,T,0,190,190,190,,,,,,,None,862.9961325256304,None,862.005268478482,None,862.4881923477332,None,1,[0.008760805881138367],[0.5174257162814229],862.9961325256304,None,[3 0 1 3 1 0 2 3],space,0,1.6208842663976384,0.00254533547081337,None,863.0044342840137,None,1,864.6280807625968,None,None,865.1276652048218,None,,,,,,,,,,,,,,,,,,,,,,,,,,,,,,,,,,,,,,,,,,,,,,24_BJR,24,22,F,2022-12-17_10h10.39.568,dynamic target,2022.1.3,120.12552011101863,
0,8,3,2,T,0,191,191,191,,,,,,,None,866.1684662303584,None,865.1859535250088,None,865.6688616789471,None,1,[0.009154650866776137],[0.5175825486901431],866.1684662303584,None,[1 3 1 2 1 0 1 0],space,0,1.2719417786698841,0.002486002146042665,None,866.1851190098199,None,1,867.4590436494422,None,None,867.9586293745499,None,,,,,,,,,,,,,,,,,,,,,,,,,,,,,,,,,,,,,,,,,,,,,,24_BJR,24,22,F,2022-12-17_10h10.39.568,dynamic target,2022.1.3,120.12552011101863,
0,1,4,2,T,0,192,192,192,,,,,,,None,868.9994583027848,None,868.0085879374391,None,868.4998447711947,None,1,[0.008700189674300418],[0.5175155180697857],868.9994583027848,None,[3 3 3 2 3 2 3 2],space,0,1.4333967344138046,0.0024831156601976545,None,869.0160911975646,None,1,870.4482283069348,None,None,870.9477979960091,None,,,,,,,,,,,,,,,,,,,,,,,,,,,,,,,,,,,,,,,,,,,,,,24_BJR,24,22,F,2022-12-17_10h10.39.568,dynamic target,2022.1.3,120.12552011101863,
0,2,1,2,T,0,193,193,193,,,,,,,None,871.9803067885663,None,871.006104917995,None,871.480719876792,None,1,[0.008584730232087168],[0.5169539361727402],871.9803067885663,None,[2 0 2 0 0 1 3 0],space,0,1.5722319025900333,0.00293308676327797,None,871.9969406455081,None,1,873.5706448217403,None,None,874.0702190009038,None,,,,,,,,,,,,,,,,,,,,,,,,,,,,,,,,,,,,,,,,,,,,,,24_BJR,24,22,F,2022-12-17_10h10.39.568,dynamic target,2022.1.3,120.12552011101863,
0,3,2,2,T,0,194,194,194,,,,,,,None,875.1026607628406,None,874.128475890465,None,874.6030953393514,None,1,[0.00861102932731228],[0.5175132730248606],875.1026607628406,None,[1 1 0 1 1 0 1 1],space,0,1.7929547556697116,0.0019529643893747561,None,875.11933631347,None,1,876.9178425890112,None,None,877.4174449915938,None,,,,,,,,,,,,,,,,,,,,,,,,,,,,,,,,,,,,,,,,,,,,,,24_BJR,24,22,F,2022-12-17_10h10.39.568,dynamic target,2022.1.3,120.12552011101863,
0,4,1,2,T,0,195,195,195,,,,,,,None,878.4498694346145,None,877.4673894427737,None,877.9503232543656,None,1,[0.008660741031462749],[0.5174786351924467],878.4498694346145,None,[1 2 1 2 0 1 2 1],space,0,2.061063125902024,0.0021171733731080167,None,878.4665683978527,None,1,880.5315085609969,None,None,881.0311202644791,None,,,,,,,,,,,,,,,,,,,,,,,,,,,,,,,,,,,,,,,,,,,,,,24_BJR,24,22,F,2022-12-17_10h10.39.568,dynamic target,2022.1.3,120.12552011101863,
0,5,4,2,T,0,196,196,196,,,,,,,None,882.063552084075,None,881.089384209895,None,881.5639747939209,None,1,[0.008625782478247856],[0.517329820800569],882.063552084075,None,[0 0 1 2 2 2 3 3],space,0,1.648092283901292,0.002453930079127531,None,882.0802148058775,None,1,883.7288467077061,None,None,884.2284552039816,None,,,,,,,,,,,,,,,,,,,,,,,,,,,,,,,,,,,,,,,,,,,,,,24_BJR,24,22,F,2022-12-17_10h10.39.568,dynamic target,2022.1.3,120.12552011101863,
0,6,3,2,T,0,197,197,197,,,,,,,None,885.2608995316838,None,884.2867755962358,None,884.7613119784681,None,1,[0.008630593288216915],[0.517907118010271],885.2608995316838,None,[2 0 1 0 0 3 2 2],space,0,1.0267732752359962,0.0018987625956015108,None,885.2775568012347,None,1,886.3100108467733,None,None,886.8096126079145,None,,,,,,,,,,,,,,,,,,,,,,,,,,,,,,,,,,,,,,,,,,,,,,24_BJR,24,22,F,2022-12-17_10h10.39.568,dynamic target,2022.1.3,120.12552011101863,
0,6,3,0,T,0,198,198,198,,,,,,,None,887.8420941392147,None,886.8679669965601,None,887.3425024166303,None,1,[0.008740279758285396],[0.5178458603620584],887.8420941392147,None,[3 0 0 1 2 3 2 3],space,0,1.1813070788742834,0.0023375084751933173,None,887.8587449943522,None,1,889.0410971469331,None,None,889.5406325188953,None,,,,,,,,,,,,,,,,,,,,,,,,,,,,,,,,,,,,,,,,,,,,,,24_BJR,24,22,F,2022-12-17_10h10.39.568,dynamic target,2022.1.3,120.12552011101863,
0,4,3,0,T,0,199,199,199,,,,,,,None,890.5731406700112,None,889.5989974913228,None,890.073557606885,None,1,[0.008632517612340962],[0.5170200046311493],890.5731406700112,None,[2 3 1 1 1 1 3 3],space,0,2.3231413060558452,0.003102747999037092,None,890.5898200692885,None,1,892.9128749465198,None,None,893.4124433527113,None,,,,,,,,,,,,,,,,,,,,,,,,,,,,,,,,,,,,,,,,,,,,,,24_BJR,24,22,F,2022-12-17_10h10.39.568,dynamic target,2022.1.3,120.12552011101863,
0,5,3,2,T,0,200,200,200,,,,,,,None,894.444909489419,None,893.4708070422563,None,893.9453318785444,None,1,[0.008602049148521473],[0.5172999937781242],894.444909489419,None,[2 2 0 2 1 0 2 3],space,0,2.44977401481799,0.002032823836316311,None,894.4615773427523,None,1,896.9095282263057,None,None,897.4091194036648,None,,,,,,,,,,,,,,,,,,,,,,,,,,,,,,,,,,,,,,,,,,,,,,24_BJR,24,22,F,2022-12-17_10h10.39.568,dynamic target,2022.1.3,120.12552011101863,
0,6,1,2,T,0,201,201,201,,,,,,,None,898.4416083115403,None,897.4674064409691,None,897.9419886862576,None,1,[0.008769786060156548],[0.5176704261543819],898.4416083115403,None,[0 0 0 2 0 1 0 3],space,0,1.7183939345221688,0.002411594950217477,None,898.4582559594713,None,1,900.1817931364493,None,None,900.681379823719,None,,,,,,,,,,,,,,,,,,,,,,,,,,,,,,,,,,,,,,,,,,,,,,24_BJR,24,22,F,2022-12-17_10h10.39.568,dynamic target,2022.1.3,120.12552011101863,
0,7,4,2,T,0,202,202,202,,,,,,,None,901.7221795663728,None,900.7396758412023,None,901.2226211987385,None,1,[0.008644384277204153],[0.5172964658506771],901.7221795663728,None,[0 1 0 0 0 1 0 2],space,0,1.7808863574963425,0.002229746329021509,None,901.7388470989853,None,1,903.5206935392104,None,None,904.020277339994,None,,,,,,,,,,,,,,,,,,,,,,,,,,,,,,,,,,,,,,,,,,,,,,24_BJR,24,22,F,2022-12-17_10h10.39.568,dynamic target,2022.1.3,120.12552011101863,
0,8,1,2,T,0,203,203,203,,,,,,,None,905.0610655367037,None,904.0869441670212,None,904.5614779834881,None,1,[0.008654326618170671],[0.517244509101829],905.0610655367037,None,[0 2 1 0 2 3 0 1],space,0,1.6577479004578208,0.0025889534820180415,None,905.0777183161653,None,1,906.734690559074,None,None,907.2342724355335,None,,,,,,,,,,,,,,,,,,,,,,,,,,,,,,,,,,,,,,,,,,,,,,24_BJR,24,22,F,2022-12-17_10h10.39.568,dynamic target,2022.1.3,120.12552011101863,
0,1,2,2,T,0,204,204,204,,,,,,,None,908.2750793302582,None,907.3009071904934,None,907.7754884736197,None,1,[0.008716867149132668],[0.5090164202567848],908.2750793302582,None,[0 2 2 2 3 3 0 1],space,0,1.9243453556035774,0.0025228850233816047,None,908.2834022562059,None,1,910.2067920299631,None,None,910.7063684541713,None,,,,,,,,,,,,,,,,,,,,,,,,,,,,,,,,,,,,,,,,,,,,,,24_BJR,24,22,F,2022-12-17_10h10.39.568,dynamic target,2022.1.3,120.12552011101863,
0,2,3,2,T,0,205,205,205,,,,,,,None,911.7388531926782,None,910.7563497882282,None,911.2392675637865,None,1,[0.008581843746242157],[0.5171630460508823],911.7388531926782,None,[2 1 2 2 1 2 1 1],space,0,1.9241619033790585,0.00262647780050429,None,911.7554921811508,None,1,913.678903443193,None,None,914.1784942998315,None,,,,,,,,,,,,,,,,,,,,,,,,,,,,,,,,,,,,,,,,,,,,,,24_BJR,24,22,F,2022-12-17_10h10.39.568,dynamic target,2022.1.3,120.12552011101863,
0,3,4,2,T,0,206,206,206,,,,,,,None,915.210961719422,None,914.2284406753353,None,914.7113853914301,None,1,[0.008745732009629137],[0.517162404609735],915.210961719422,None,[3 2 3 2 0 3 1 3],space,0,2.1479684857216625,0.0027259012090325996,None,915.2276154610457,None,1,917.3758413305032,None,None,917.8753930592197,None,,,,,,,,,,,,,,,,,,,,,,,,,,,,,,,,,,,,,,,,,,,,,,24_BJR,24,22,F,2022-12-17_10h10.39.568,dynamic target,2022.1.3,120.12552011101863,
0,2,2,1,T,0,207,207,207,,,,,,,None,918.9078854950227,None,917.9170369386828,918.9161818973706,918.4082947346004,None,1,[0.05814024345272628],[0.5582823227105109],918.9078854950227,None,[0 0 1 3 3 0 2 1],space,0,1.7060942967442543,0.0029433498248181422,None,918.9661687798952,None,1,920.6730855701998,None,None,921.1726366574749,None,,,,,,,,,,,,,,,,,,,,,,,,,,,,,,,,,,,,,,,,,,,,,,24_BJR,24,22,F,2022-12-17_10h10.39.568,dynamic target,2022.1.3,120.12552011101863,
0,3,3,2,T,0,208,208,208,,,,,,,None,922.2051375282315,None,921.2309602569359,None,921.6972332710494,None,1,[0.0088663229823851],[0.5164654785889979],922.2051375282315,None,[2 2 1 0 2 2 0 1],space,0,1.641986403744454,0.0027746507512347307,None,922.2134710379611,None,1,923.8537625987097,None,None,924.3533489652589,None,,,,,,,,,,,,,,,,,,,,,,,,,,,,,,,,,,,,,,,,,,,,,,24_BJR,24,22,F,2022-12-17_10h10.39.568,dynamic target,2022.1.3,120.12552011101863,
0,4,1,2,T,0,209,209,209,,,,,,,None,925.3858186298941,None,924.4116327953565,None,924.8862480748743,None,1,[0.008680946433742065],[0.5173676658398563],925.3858186298941,None,[1 0 0 0 1 3 0 1],space,0,2.0367464052579862,0.0026983192312854953,None,925.4024826345793,None,1,927.4424485997016,None,None,927.9420314383233,None,,,,,,,,,,,,,,,,,,,,,,,,,,,,,,,,,,,,,,,,,,,,,,24_BJR,24,22,F,2022-12-17_10h10.39.568,dynamic target,2022.1.3,120.12552011101863,
0,5,4,2,T,0,210,210,210,,,,,,,None,928.9745059137684,None,928.000382619762,None,928.474918360553,None,1,[0.00866298607616045],[0.5174417523151078],928.9745059137684,None,[1 1 2 3 0 3 3 3],space,0,2.4480212763443205,0.0026880561695179495,None,928.9911619004369,None,1,931.4391166326383,None,None,931.9387013955838,None,,,,,,,,,,,,,,,,,,,,,,,,,,,,,,,,,,,,,,,,,,,,,,24_BJR,24,22,F,2022-12-17_10h10.39.568,dynamic target,2022.1.3,120.12552011101863,
0,4,4,1,T,0,211,211,211,,,,,,,None,932.9711720223812,None,931.996995488743,None,932.4715896006963,None,1,[0.008597238338552415],[0.5176996117356794],932.9711720223812,None,[2 3 0 2 0 3 2 2],space,0,2.227455255673135,0.0023772778383772675,None,932.987837309949,None,1,935.2192712713176,None,None,935.718891634258,None,,,,,,,,,,,,,,,,,,,,,,,,,,,,,,,,,,,,,,,,,,,,,,24_BJR,24,22,F,2022-12-17_10h10.39.568,dynamic target,2022.1.3,120.12552011101863,
0,1,2,0,T,0,212,212,212,,,,,,,None,936.7513574502451,None,935.7771831616516,None,936.2517779150463,None,1,[0.008639252746434067],[0.5171704226265774],936.7513574502451,None,[2 2 2 1 2 1 0 2],space,0,1.7591164797100873,0.0029164092882183468,None,936.7680188891649,None,1,938.524894980016,None,None,939.0244733285481,None,,,,,,,,,,,,,,,,,,,,,,,,,,,,,,,,,,,,,,,,,,,,,,24_BJR,24,22,F,2022-12-17_10h10.39.568,dynamic target,2022.1.3,120.12552011101863,
0,3,4,0,T,0,213,213,213,,,,,,,None,940.0569259949879,None,939.074410723873,None,939.5573586471745,None,1,[0.008577674377420408],[0.5169917812120275],940.0569259949879,None,[2 3 3 3 2 3 3 1],space,0,1.7499608666815902,0.0028997318131587235,None,940.0736041113825,None,1,941.8221510863772,None,None,942.3217150024791,None,,,,,,,,,,,,,,,,,,,,,,,,,,,,,,,,,,,,,,,,,,,,,,24_BJR,24,22,F,2022-12-17_10h10.39.568,dynamic target,2022.1.3,120.12552011101863,
0,4,4,2,T,0,214,214,214,,,,,,,None,943.3458517026098,None,942.3634361756241,None,942.8462933349755,None,1,[0.008652402294046624],[0.5168622100604807],943.3458517026098,None,[3 2 0 3 2 1 0 3],space,0,2.733203532280754,0.00318421104952904,None,943.3625262910772,None,1,946.093564803857,None,None,946.5931745830151,None,,,,,,,,,,,,,,,,,,,,,,,,,,,,,,,,,,,,,,,,,,,,,,24_BJR,24,22,F,2022-12-17_10h10.39.568,dynamic target,2022.1.3,120.12552011101863,
0,5,2,2,T,0,215,215,215,,,,,,,None,947.6256301359407,None,946.6431270522115,947.642301837922,947.1260624674068,None,2,"[0.008635724819214374, 0.03365482373510531]","[0.016912242485432216, 0.5340743263743661]",947.6256301359407,None,[3 2 2 2 2 1 3 0],space,0,2.0516794804754,0.002494020163339883,None,947.6589440336014,None,1,949.7155509115204,None,None,950.2151587663543,None,,,,,,,,,,,,,,,,,,,,,,,,,,,,,,,,,,,,,,,,,,,,,,24_BJR,24,22,F,2022-12-17_10h10.39.568,dynamic target,2022.1.3,120.12552011101863,
0,3,2,0,T,0,216,216,216,,,,,,,None,951.2392951457645,None,950.2484478723071,951.2476226580176,950.7397444754262,None,2,"[0.09970468040501146, 0.11636227067651816]","[0.10814797282068866, 0.6167278922428068]",951.2392951457645,None,[0 0 1 1 3 0 1 2],space,0,2.0348134217668985,0.0027525210250587406,None,951.3558764686601,None,1,953.395841792341,None,None,953.8954336111417,None,,,,,,,,,,,,,,,,,,,,,,,,,,,,,,,,,,,,,,,,,,,,,,24_BJR,24,22,F,2022-12-17_10h10.39.568,dynamic target,2022.1.3,120.12552011101863,
